timestamp(unix),attitude_roll(radians),attitude_pitch(radians),attitude_yaw(radians),rotation_rate_x(radians/s),rotation_rate_y(radians/s),rotation_rate_z(radians/s),gravity_x(G),gravity_y(G),gravity_z(G),user_acc_x(G),user_acc_y(G),user_acc_z(G),magnetic_field_x(microteslas),magnetic_field_y(microteslas),magnetic_field_z(microteslas),latitude(degree),longitude(degree),altitude(meter),speed(m/s),course(degree),timestamp(unix)
1481988810.47,0.062322,0.163214,-0.494410,-0.149529,0.423194,-0.052543,0.061454,-0.162490,-0.984795,0.014718,-0.048264,-0.042442,-5.744898,-21.624592,-38.783447,,,,,,
1481988810.52,0.061944,0.152708,-0.493517,0.044094,-0.016064,0.073528,0.061184,-0.152115,-0.986467,0.020726,-0.009445,-0.104323,-5.770109,-21.259296,-38.981163,,,,,,
1481988810.57,0.061899,0.158035,-0.489296,-0.010685,-0.125851,0.099989,0.061088,-0.157378,-0.985647,-0.011680,0.001357,-0.014231,-5.816491,-21.442299,-38.873886,,,,,,
1481988810.62,0.053035,0.158557,-0.485685,0.061834,0.005798,0.010619,0.052345,-0.157893,-0.986068,-0.034355,0.000499,-0.013978,-6.050725,-21.410732,-38.855526,,,,,,
1481988810.67,0.053397,0.160706,-0.485234,0.081674,0.034640,0.021075,0.052684,-0.160015,-0.985708,-0.009898,-0.018483,-0.003138,-6.261441,-21.463469,-38.792995,,,,,,
1481988810.71,0.052356,0.164596,-0.483437,0.026761,-0.019466,0.050888,0.051625,-0.163853,-0.985133,-0.000523,-0.018733,-0.012624,-6.301579,-21.562201,-38.731701,,,,,,
1481988810.76,0.052640,0.170115,-0.478492,0.143316,0.129357,0.122190,0.051856,-0.169296,-0.984200,-0.000266,0.011261,-0.029960,-6.358721,-21.834452,-38.569496,,,,,,
1481988810.81,0.056691,0.181033,-0.475629,0.110272,0.056135,0.031458,0.055735,-0.180045,-0.982078,-0.015040,-0.015679,0.020698,-6.244326,-22.115650,-38.427711,,,,,,
1481988810.86,0.053207,0.182251,-0.474367,-0.039172,-0.010280,0.015544,0.052301,-0.181244,-0.982046,0.020056,-0.031220,0.025915,-6.439187,-22.247150,-38.319496,,,,,,
1481988810.91,0.055015,0.180461,-0.471973,-0.026907,0.046452,0.031979,0.054094,-0.179483,-0.982273,-0.012895,-0.011496,0.001483,-6.413012,-22.157301,-38.375904,,,,,,
1481988810.95,0.056255,0.179316,-0.471306,-0.006825,0.035448,0.012527,0.055323,-0.178357,-0.982409,0.003530,-0.007587,-0.038999,-6.406010,-22.130795,-38.392365,,,,,,
1481988811.00,0.057203,0.180128,-0.470196,-0.003140,0.047500,0.018444,0.056247,-0.179155,-0.982212,-0.014728,-0.006788,-0.002972,-6.362255,-22.124989,-38.402988,,,,,,
1481988811.05,0.054324,0.179079,-0.470150,-0.040100,-0.053704,-0.027572,0.053429,-0.178123,-0.982557,-0.000847,-0.015343,-0.020175,-6.438439,-22.074409,-38.419392,,,,,,
1481988811.10,0.053825,0.181028,-0.470117,0.045566,0.030126,0.014320,0.052920,-0.180041,-0.982235,-0.002917,-0.013303,0.010021,-6.476870,-22.101360,-38.397430,,,,,,
1481988811.15,0.052522,0.180655,-0.469611,0.018296,0.053527,-0.028786,0.051644,-0.179674,-0.982370,-0.007714,0.001116,-0.023978,-6.510179,-22.165161,-38.355000,,,,,,
1481988811.19,0.057522,0.188242,-0.473838,0.425436,0.131530,-0.164130,0.056475,-0.187132,-0.980710,0.010694,0.044005,-0.106021,-6.339698,-22.368748,-38.265259,,,,,,
1481988811.24,0.079149,0.237243,-0.492555,1.173156,0.395724,-0.392382,0.076852,-0.235024,-0.968947,-0.000237,-0.009605,0.165281,-5.820743,-23.387627,-37.734871,,,,,,
1481988811.29,0.073853,0.248373,-0.509843,-0.253586,-0.609165,-0.236616,0.071521,-0.245827,-0.966672,0.003384,-0.031807,-0.031803,-4.970395,-25.061619,-36.769459,,,,,,
1481988811.34,0.053733,0.246161,-0.518988,0.064121,-0.211776,-0.095513,0.052088,-0.243683,-0.968455,0.009619,-0.055542,-0.020223,-5.675491,-24.917835,-36.765106,,,,,,
1481988811.39,0.048862,0.248718,-0.518083,0.019481,-0.101745,0.048960,0.047340,-0.246162,-0.968072,-0.015419,0.003608,-0.014869,-6.000974,-25.051296,-36.622448,,,,,,
1481988811.43,0.042553,0.247743,-0.515773,0.009608,0.016030,-0.020076,0.041241,-0.245217,-0.968591,-0.012570,0.004647,-0.029349,-6.298285,-24.998062,-36.608894,,,,,,
1481988811.48,0.041568,0.247634,-0.516058,-0.039057,-0.082986,0.025518,0.040288,-0.245111,-0.968658,0.007991,-0.016120,0.026687,-6.304487,-25.007294,-36.601524,,,,,,
1481988811.53,0.040045,0.248153,-0.513575,0.004551,-0.087048,0.037039,0.038808,-0.245614,-0.968591,-0.027638,0.025491,-0.037101,-6.396258,-24.999126,-36.591179,,,,,,
1481988811.58,0.039093,0.250114,-0.515541,0.007345,-0.066243,-0.029295,0.037867,-0.247514,-0.968144,0.034414,-0.012709,-0.024089,-6.441090,-25.053722,-36.545944,,,,,,
1481988811.63,0.034614,0.249495,-0.514921,-0.007974,-0.055445,0.034635,0.033535,-0.246915,-0.968457,-0.006252,-0.007632,-0.048740,-6.523458,-25.089817,-36.506550,,,,,,
1481988811.67,0.031235,0.250757,-0.513485,0.019355,-0.052132,0.054748,0.030253,-0.248138,-0.968252,0.022070,-0.012986,0.003637,-6.681227,-25.076607,-36.487091,,,,,,
1481988811.72,0.029552,0.250561,-0.509896,-0.080583,-0.029529,0.076327,0.028625,-0.247947,-0.968351,-0.001555,-0.001199,-0.000582,-6.843632,-25.076344,-36.457161,,,,,,
1481988811.77,0.026603,0.246628,-0.506517,0.006894,-0.036248,0.046399,0.025795,-0.244135,-0.969398,-0.008614,0.003077,-0.069619,-7.002623,-24.889458,-36.554905,,,,,,
1481988811.82,0.022878,0.249787,-0.504021,0.086718,-0.061210,0.056373,0.022166,-0.247198,-0.968711,-0.013819,-0.009074,0.061348,-7.172333,-24.969719,-36.467159,,,,,,
1481988811.87,0.023216,0.249046,-0.501013,-0.083121,-0.028323,0.083575,0.022498,-0.246479,-0.968887,-0.000510,-0.002544,0.002685,-7.207981,-24.953445,-36.471268,,,,,,
1481988811.91,0.020837,0.246083,-0.498539,-0.035452,-0.012790,0.023940,0.020208,-0.243607,-0.969664,0.007639,-0.016403,0.007078,-7.335468,-24.829315,-36.530518,,,,,,
1481988811.96,0.024064,0.242051,-0.496005,-0.143572,0.191271,0.103752,0.023360,-0.239694,-0.970567,0.002107,-0.013403,0.069780,-7.338704,-24.732029,-36.595806,,,,,,
1481988812.01,0.030068,0.227067,-0.491566,-0.488340,0.032365,0.031680,0.029291,-0.225121,-0.973890,0.042852,-0.013526,-0.102205,-7.184398,-24.425060,-36.831829,,,,,,
1481988812.06,0.029834,0.218537,-0.488353,0.095219,0.109509,0.030197,0.029120,-0.216802,-0.975781,-0.031165,0.014287,-0.079257,-7.170050,-23.696352,-37.307587,,,,,,
1481988812.11,0.030292,0.219771,-0.490402,0.019812,0.046398,-0.074507,0.029559,-0.218006,-0.975500,0.010968,-0.018948,0.008047,-7.123682,-23.769569,-37.269875,,,,,,
1481988812.15,0.032063,0.219935,-0.490382,-0.056745,-0.042996,0.054438,0.031285,-0.218166,-0.975410,-0.003148,-0.004963,0.022331,-7.023994,-23.795582,-37.272194,,,,,,
1481988812.20,0.032055,0.218016,-0.489821,-0.020267,-0.044317,-0.003778,0.031291,-0.216293,-0.975827,0.025350,-0.018204,-0.004947,-7.038389,-23.710552,-37.323631,,,,,,
1481988812.25,0.032217,0.217917,-0.488993,0.013085,0.049735,0.019448,0.031450,-0.216196,-0.975843,0.005446,-0.002356,0.005766,-7.070834,-23.693468,-37.328346,,,,,,
1481988812.30,0.035803,0.218202,-0.488916,-0.045451,0.090332,-0.013729,0.034947,-0.216475,-0.975663,0.006420,-0.007021,-0.004043,-6.980425,-23.719921,-37.328564,,,,,,
1481988812.35,0.036009,0.214956,-0.487513,-0.058054,0.038206,0.033613,0.035173,-0.213304,-0.976353,-0.002152,-0.005415,0.000889,-6.927295,-23.570951,-37.432678,,,,,,
1481988812.39,0.035601,0.212837,-0.486462,0.012099,0.052347,-0.032307,0.034791,-0.211234,-0.976816,-0.000977,-0.003900,-0.021780,-6.931531,-23.504208,-37.473843,,,,,,
1481988812.44,0.037892,0.213668,-0.487026,-0.061718,0.001908,0.033830,0.037022,-0.212046,-0.976558,0.011761,-0.018652,-0.010563,-6.895208,-23.493711,-37.487122,,,,,,
1481988812.49,0.036167,0.212473,-0.486018,-0.031553,0.015142,-0.015952,0.035346,-0.210878,-0.976873,0.009866,-0.014433,-0.018107,-6.958350,-23.450600,-37.502445,,,,,,
1481988812.54,0.036872,0.210902,-0.486462,-0.004165,0.031838,-0.012754,0.036047,-0.209342,-0.977178,0.011683,-0.012429,-0.031581,-6.946032,-23.401886,-37.535145,,,,,,
1481988812.59,0.041098,0.214591,-0.486591,0.005681,-0.025333,0.037943,0.040144,-0.212948,-0.976238,0.004412,-0.010868,0.010571,-6.807415,-23.481411,-37.510864,,,,,,
1481988812.63,0.041232,0.214243,-0.485269,0.000721,0.028085,0.010070,0.040278,-0.212608,-0.976307,-0.004160,0.002723,-0.011440,-6.766538,-23.546028,-37.477745,,,,,,
1481988812.68,0.042640,0.214153,-0.485501,-0.014140,0.001617,0.000746,0.041654,-0.212520,-0.976268,0.005343,-0.006565,-0.015995,-6.716115,-23.526974,-37.498775,,,,,,
1481988812.73,0.041900,0.213777,-0.485246,-0.006634,-0.014198,0.003136,0.040935,-0.212152,-0.976379,-0.002879,-0.004980,0.003860,-6.733481,-23.502354,-37.511097,,,,,,
1481988812.78,0.041764,0.212023,-0.486275,-0.051386,0.054211,-0.054412,0.040817,-0.210438,-0.976755,-0.000015,-0.003689,-0.020132,-6.730385,-23.469925,-37.531952,,,,,,
1481988812.83,0.042795,0.209991,-0.488392,-0.015027,-0.056322,-0.044711,0.041842,-0.208451,-0.977137,0.006116,-0.001754,-0.019750,-6.664034,-23.402710,-37.585724,,,,,,
1481988812.87,0.042615,0.209892,-0.489023,-0.047819,-0.021128,0.012097,0.041667,-0.208355,-0.977165,-0.002482,-0.007405,-0.011360,-6.656641,-23.386314,-37.597237,,,,,,
1481988812.92,0.044544,0.210561,-0.490386,0.039669,0.010965,-0.036067,0.043546,-0.209009,-0.976944,0.011447,-0.000403,-0.012573,-6.632418,-23.396330,-37.595287,,,,,,
1481988812.97,0.046530,0.212083,-0.491770,0.010883,-0.015524,-0.005500,0.045471,-0.210497,-0.976536,0.007004,-0.007932,0.033757,-6.516504,-23.471338,-37.568790,,,,,,
1481988813.02,0.047263,0.208828,-0.491664,-0.074044,0.032441,-0.003482,0.046219,-0.207313,-0.977182,0.002732,-0.003655,-0.018225,-6.451542,-23.395546,-37.627235,,,,,,
1481988813.07,0.049070,0.207195,-0.492580,0.008459,0.011230,-0.030874,0.048002,-0.205715,-0.977434,0.007983,-0.006626,-0.021956,-6.371743,-23.333683,-37.679211,,,,,,
1481988813.11,0.050318,0.207490,-0.493794,-0.054014,-0.039221,0.012254,0.049218,-0.206005,-0.977312,0.034171,-0.023655,-0.003507,-6.350031,-23.315533,-37.694107,,,,,,
1481988813.16,0.049453,0.205313,-0.491832,-0.024295,0.012501,0.032111,0.048395,-0.203874,-0.977800,0.001059,-0.007826,-0.017134,-6.349851,-23.255939,-37.730938,,,,,,
1481988813.21,0.049377,0.205202,-0.490467,-0.001824,0.009890,0.029441,0.048321,-0.203765,-0.977827,-0.000165,-0.002580,-0.003298,-6.368927,-23.236732,-37.739552,,,,,,
1481988813.26,0.048536,0.202628,-0.489089,-0.081570,-0.029360,0.030601,0.047524,-0.201244,-0.978388,-0.013024,0.006084,-0.016440,-6.388930,-23.212685,-37.750969,,,,,,
1481988813.31,0.047730,0.200717,-0.489128,-0.016457,-0.000654,-0.030514,0.046754,-0.199372,-0.978808,-0.009126,-0.003341,-0.006437,-6.435255,-23.069824,-37.830589,,,,,,
1481988813.35,0.049742,0.200670,-0.491350,-0.021380,0.018839,-0.051008,0.048724,-0.199326,-0.978721,0.025922,-0.019455,0.011512,-6.376518,-23.059860,-37.846607,,,,,,
1481988813.40,0.049488,0.197851,-0.490857,-0.094076,-0.023212,0.035539,0.048503,-0.196563,-0.979291,0.008519,-0.015778,-0.005084,-6.363475,-22.955479,-37.912201,,,,,,
1481988813.45,0.049061,0.195340,-0.489284,-0.049184,0.004268,0.026437,0.048108,-0.194100,-0.979801,-0.005369,-0.002983,-0.027858,-6.384666,-22.861767,-37.965225,,,,,,
1481988813.50,0.049318,0.194890,-0.488636,0.004464,-0.001049,0.025805,0.048365,-0.193659,-0.979876,0.002050,-0.011327,-0.033994,-6.389677,-22.824957,-37.986526,,,,,,
1481988813.55,0.049123,0.195243,-0.487915,-0.008030,0.030574,0.017384,0.048171,-0.194005,-0.979817,0.013765,-0.006709,-0.031352,-6.451691,-22.819973,-37.979038,,,,,,
1481988813.59,0.047894,0.195414,-0.486165,0.001974,0.009889,0.020970,0.046964,-0.194173,-0.979842,-0.005979,0.002736,0.003478,-6.447801,-22.836235,-37.969921,,,,,,
1481988813.64,0.046968,0.193913,-0.485284,-0.058975,-0.062203,0.018442,0.046071,-0.192700,-0.980176,-0.011922,0.011303,-0.010654,-6.491385,-22.825447,-37.968983,,,,,,
1481988813.69,0.047185,0.192973,-0.485383,0.004553,0.030543,-0.004436,0.046292,-0.191778,-0.980346,0.004108,-0.001139,-0.015000,-6.534371,-22.736612,-38.014881,,,,,,
1481988813.74,0.047486,0.192487,-0.485902,0.017150,0.037795,-0.031105,0.046592,-0.191300,-0.980425,0.011376,-0.013641,-0.025083,-6.518129,-22.709269,-38.034008,,,,,,
1481988813.79,0.048635,0.192700,-0.486282,-0.049001,-0.038042,0.009780,0.047716,-0.191510,-0.980330,0.013426,-0.013965,-0.010682,-6.467376,-22.720594,-38.035912,,,,,,
1481988813.83,0.049815,0.192521,-0.485943,0.023141,0.032716,0.019399,0.048875,-0.191334,-0.980307,0.010391,-0.009075,-0.029123,-6.440840,-22.709602,-38.046974,,,,,,
1481988813.88,0.049750,0.193034,-0.484934,-0.005418,-0.033629,0.022465,0.048806,-0.191837,-0.980212,0.001853,-0.000835,-0.011212,-6.412290,-22.735949,-38.036060,,,,,,
1481988813.93,0.047983,0.192523,-0.483856,0.007046,0.025668,-0.000833,0.047078,-0.191336,-0.980395,-0.002385,-0.005304,-0.015195,-6.489124,-22.717361,-38.034134,,,,,,
1481988813.98,0.049050,0.193565,-0.483835,0.035707,0.053282,-0.007331,0.048115,-0.192358,-0.980145,-0.008503,-0.001947,0.001537,-6.492023,-22.719660,-38.032269,,,,,,
1481988814.03,0.048423,0.192944,-0.483907,-0.047686,-0.041646,-0.001051,0.047506,-0.191750,-0.980293,-0.002432,-0.002266,-0.025886,-6.475517,-22.735264,-38.025757,,,,,,
1481988814.07,0.048760,0.193086,-0.483963,0.008249,0.026835,0.007573,0.047835,-0.191889,-0.980250,0.008866,-0.009848,-0.011708,-6.502721,-22.712097,-38.034958,,,,,,
1481988814.12,0.047721,0.191341,-0.483045,-0.015352,-0.028665,0.011733,0.046832,-0.190176,-0.980632,0.002088,-0.003702,-0.032933,-6.524375,-22.668722,-38.057121,,,,,,
1481988814.17,0.047302,0.192154,-0.482812,0.012036,0.002581,0.008844,0.046414,-0.190974,-0.980497,0.003253,-0.009404,-0.006258,-6.558489,-22.665943,-38.052910,,,,,,
1481988814.22,0.046722,0.192750,-0.482625,0.012062,0.018362,-0.002063,0.045840,-0.191559,-0.980410,0.011671,-0.012589,-0.002195,-6.579633,-22.683559,-38.038765,,,,,,
1481988814.27,0.046932,0.193270,-0.481010,-0.019220,-0.005686,0.027321,0.046041,-0.192069,-0.980301,-0.014760,0.001105,-0.002426,-6.552199,-22.725319,-38.018562,,,,,,
1481988814.31,0.044135,0.192650,-0.480289,-0.011626,-0.004466,0.005557,0.043304,-0.191460,-0.980545,0.001587,-0.001289,-0.000016,-6.652914,-22.675108,-38.031052,,,,,,
1481988814.36,0.043591,0.191771,-0.480138,0.000923,0.006389,-0.013905,0.042779,-0.190598,-0.980736,-0.010186,0.001740,-0.026848,-6.715514,-22.658577,-38.029903,,,,,,
1481988814.41,0.045204,0.193200,-0.481123,-0.001541,-0.027517,-0.005291,0.044347,-0.192001,-0.980392,0.003290,-0.005418,-0.009796,-6.663417,-22.700001,-38.014362,,,,,,
1481988814.46,0.043966,0.192554,-0.481290,-0.015330,-0.015318,0.003246,0.043139,-0.191367,-0.980570,0.010083,-0.006204,-0.007925,-6.719046,-22.680044,-38.016483,,,,,,
1481988814.51,0.043980,0.191862,-0.480978,-0.022848,0.006551,0.000828,0.043159,-0.190687,-0.980702,0.006615,-0.007525,-0.023052,-6.708154,-22.664925,-38.027420,,,,,,
1481988814.55,0.043552,0.191401,-0.480764,0.009483,0.012256,0.017257,0.042743,-0.190234,-0.980808,0.005338,-0.006497,-0.015271,-6.726924,-22.631863,-38.043793,,,,,,
1481988814.60,0.043184,0.191674,-0.480462,-0.023985,-0.052777,0.004730,0.042380,-0.190502,-0.980772,0.000116,-0.004871,-0.015551,-6.717063,-22.649151,-38.035240,,,,,,
1481988814.65,0.042697,0.192288,-0.480141,0.026971,0.004843,0.015874,0.041897,-0.191105,-0.980675,0.005283,-0.007488,-0.009269,-6.775870,-22.637293,-38.031876,,,,,,
1481988814.70,0.042520,0.192543,-0.480251,-0.007753,-0.037146,-0.005170,0.041722,-0.191356,-0.980634,0.002849,-0.000447,-0.013477,-6.771037,-22.681379,-38.006458,,,,,,
1481988814.75,0.041417,0.191895,-0.480450,-0.015357,-0.027465,0.014136,0.040645,-0.190719,-0.980803,0.016927,-0.009125,-0.022966,-6.805167,-22.657356,-38.014690,,,,,,
1481988814.79,0.042655,0.192512,-0.480681,0.012105,0.009901,-0.005634,0.041854,-0.191325,-0.980634,0.017259,-0.010473,-0.009860,-6.798849,-22.659716,-38.014412,,,,,,
1481988814.84,0.042355,0.192605,-0.480199,0.002046,0.024483,0.004050,0.041559,-0.191416,-0.980629,-0.004679,-0.000646,-0.004341,-6.785695,-22.678156,-38.005768,,,,,,
1481988814.89,0.042251,0.192513,-0.479870,0.004596,0.030564,-0.009251,0.041458,-0.191327,-0.980650,0.000794,-0.003055,-0.008043,-6.789294,-22.672092,-38.008739,,,,,,
1481988814.94,0.042074,0.191696,-0.479710,-0.020291,0.002938,-0.008817,0.041291,-0.190524,-0.980814,-0.011643,0.005847,-0.011984,-6.789263,-22.662323,-38.014576,,,,,,
1481988814.99,0.043190,0.192318,-0.480488,0.020890,0.031689,-0.025103,0.042380,-0.191135,-0.980648,0.001840,-0.004742,-0.011966,-6.772580,-22.647766,-38.026222,,,,,,
1481988815.03,0.042675,0.192131,-0.480780,-0.005294,-0.008087,-0.010152,0.041877,-0.190951,-0.980706,-0.007591,-0.003217,0.000649,-6.759457,-22.666056,-38.017662,,,,,,
1481988815.08,0.043729,0.192691,-0.481338,-0.012780,0.000465,-0.012508,0.042906,-0.191501,-0.980554,0.008394,-0.008435,-0.018759,-6.731164,-22.682808,-38.012688,,,,,,
1481988815.13,0.043752,0.192669,-0.481609,0.007067,0.025674,-0.002036,0.042928,-0.191480,-0.980557,0.008860,-0.009189,-0.019748,-6.712518,-22.690945,-38.011131,,,,,,
1481988815.18,0.043990,0.192910,-0.482197,0.008501,-0.020282,-0.018690,0.043160,-0.191716,-0.980501,0.002022,-0.004177,-0.010161,-6.691093,-22.699024,-38.010078,,,,,,
1481988815.23,0.044460,0.192833,-0.482147,-0.016614,-0.005630,0.008030,0.043622,-0.191640,-0.980495,0.000720,-0.000391,-0.013371,-6.670046,-22.713650,-38.005043,,,,,,
1481988815.27,0.043832,0.192159,-0.482794,0.020956,0.025669,-0.034704,0.043011,-0.190978,-0.980651,0.000202,-0.005875,-0.026246,-6.709358,-22.681911,-38.017078,,,,,,
1481988815.32,0.044753,0.193682,-0.484239,0.038363,0.013350,-0.019212,0.043902,-0.192473,-0.980320,0.009550,-0.012315,0.002399,-6.655468,-22.715565,-38.006458,,,,,,
1481988815.37,0.044817,0.194916,-0.484445,-0.022776,0.001746,-0.008780,0.043953,-0.193684,-0.980079,-0.005547,-0.001567,-0.008828,-6.613024,-22.805683,-37.959866,,,,,,
1481988815.42,0.044787,0.193708,-0.485446,-0.032607,-0.008973,-0.032683,0.043934,-0.192499,-0.980313,-0.003911,0.007059,-0.026294,-6.613420,-22.768417,-37.982159,,,,,,
1481988815.47,0.045905,0.194355,-0.487565,0.032161,0.003729,-0.020295,0.045025,-0.193134,-0.980139,0.020466,-0.018444,0.005850,-6.592472,-22.751087,-37.996185,,,,,,
1481988815.51,0.045791,0.193897,-0.487286,-0.043989,-0.024745,0.004843,0.044918,-0.192684,-0.980232,-0.000438,-0.004170,-0.007973,-6.540082,-22.794113,-37.979446,,,,,,
1481988815.56,0.048635,0.195384,-0.487434,0.023137,0.029066,0.026639,0.047690,-0.194143,-0.979813,0.006921,-0.009943,-0.002548,-6.523092,-22.778990,-37.991444,,,,,,
1481988815.61,0.048061,0.194795,-0.486024,-0.022865,-0.011647,0.015355,0.047133,-0.193565,-0.979955,-0.012374,0.007057,-0.015071,-6.459337,-22.830210,-37.971588,,,,,,
1481988815.66,0.047139,0.193598,-0.486183,0.029603,0.024323,-0.016750,0.046241,-0.192391,-0.980228,-0.000175,0.000801,-0.004772,-6.515375,-22.771877,-37.997028,,,,,,
1481988815.71,0.047419,0.193500,-0.486511,-0.020351,0.015021,-0.000448,0.046516,-0.192294,-0.980234,-0.000480,-0.006253,0.005060,-6.498167,-22.767893,-38.002365,,,,,,
1481988815.75,0.048185,0.193005,-0.487033,-0.009033,0.010136,-0.016211,0.047272,-0.191809,-0.980293,0.003830,-0.009089,-0.018059,-6.468871,-22.738123,-38.025177,,,,,,
1481988815.80,0.048098,0.191808,-0.487055,-0.032836,0.002997,0.006983,0.047198,-0.190634,-0.980526,-0.004596,-0.009332,-0.019245,-6.458972,-22.711390,-38.042835,,,,,,
1481988815.85,0.048174,0.193100,-0.487433,0.015894,0.006259,-0.010479,0.047261,-0.191903,-0.980275,0.003963,-0.011375,0.003103,-6.464502,-22.724726,-38.033928,,,,,,
1481988815.90,0.047971,0.192566,-0.487384,-0.012777,-0.016513,-0.004003,0.047067,-0.191378,-0.980387,-0.011559,-0.006711,-0.023794,-6.454538,-22.752064,-38.019272,,,,,,
1481988815.95,0.048785,0.192759,-0.488432,0.025923,0.002572,-0.019011,0.047862,-0.191568,-0.980312,0.006810,-0.004797,0.003658,-6.457535,-22.723490,-38.035851,,,,,,
1481988815.99,0.049767,0.193223,-0.488674,-0.027903,0.013824,0.014095,0.048821,-0.192023,-0.980175,0.003700,-0.005014,0.005978,-6.377488,-22.783779,-38.013287,,,,,,
1481988816.04,0.049586,0.192294,-0.487911,-0.026588,0.029623,-0.005254,0.048652,-0.191111,-0.980362,-0.002219,-0.006994,-0.011307,-6.390618,-22.725594,-38.045895,,,,,,
1481988816.09,0.049940,0.191310,-0.487818,-0.021562,0.012627,-0.005235,0.049009,-0.190145,-0.980532,-0.005979,0.001745,-0.014280,-6.380296,-22.696114,-38.065224,,,,,,
1481988816.14,0.049778,0.190485,-0.487988,-0.002831,-0.005713,-0.001768,0.048857,-0.189335,-0.980696,0.003206,-0.002911,-0.022539,-6.383321,-22.665340,-38.083046,,,,,,
1481988816.19,0.049834,0.190513,-0.488252,-0.004056,-0.025087,0.001948,0.048912,-0.189363,-0.980688,0.009590,0.000322,-0.020319,-6.368393,-22.666281,-38.084984,,,,,,
1481988816.23,0.049946,0.190581,-0.487840,-0.007965,-0.008194,0.027194,0.049021,-0.189429,-0.980670,0.004736,-0.001168,-0.008267,-6.385794,-22.672989,-38.078075,,,,,,
1481988816.28,0.049211,0.190166,-0.486742,0.004599,-0.000964,0.006544,0.048304,-0.189022,-0.980784,-0.006922,-0.001499,-0.015264,-6.410571,-22.647106,-38.089314,,,,,,
1481988816.33,0.048629,0.190394,-0.485863,-0.021684,-0.002011,0.024926,0.047732,-0.189245,-0.980769,-0.005877,0.000418,-0.005178,-6.438275,-22.650152,-38.082832,,,,,,
1481988816.38,0.048187,0.189269,-0.485163,-0.027816,-0.006734,0.006969,0.047308,-0.188141,-0.981002,-0.002844,-0.000762,-0.020707,-6.479208,-22.599218,-38.106140,,,,,,
1481988816.43,0.048613,0.189162,-0.485568,-0.024051,0.000525,-0.000334,0.047727,-0.188036,-0.981002,0.005175,-0.008070,-0.021256,-6.467518,-22.590055,-38.113560,,,,,,
1481988816.47,0.048333,0.188878,-0.484909,-0.006671,-0.006964,0.018748,0.047455,-0.187757,-0.981068,0.010254,-0.007037,-0.019237,-6.475563,-22.578484,-38.119045,,,,,,
1481988816.52,0.047654,0.188909,-0.483641,-0.036633,0.002980,0.020272,0.046789,-0.187788,-0.981095,-0.010580,0.001249,-0.009506,-6.473399,-22.590210,-38.112469,,,,,,
1481988816.57,0.047255,0.188295,-0.483305,0.009573,0.006249,0.007654,0.046403,-0.187184,-0.981228,-0.000413,-0.002971,-0.010913,-6.537226,-22.541275,-38.130547,,,,,,
1481988816.62,0.047242,0.188152,-0.483041,-0.006574,-0.028723,0.009219,0.046391,-0.187044,-0.981256,-0.001683,-0.000670,-0.010139,-6.532866,-22.542374,-38.130642,,,,,,
1481988816.67,0.046750,0.187610,-0.482593,-0.048994,-0.025931,0.010929,0.045913,-0.186511,-0.981380,0.004090,0.001574,0.001323,-6.566358,-22.519951,-38.138134,,,,,,
1481988816.71,0.046580,0.186256,-0.481919,0.019514,0.026749,0.006233,0.045758,-0.185181,-0.981638,0.000720,-0.006439,-0.018865,-6.592597,-22.443657,-38.178566,,,,,,
1481988816.76,0.046794,0.186591,-0.481878,-0.010315,-0.034752,0.011700,0.045965,-0.185511,-0.981567,0.009089,-0.009222,-0.013551,-6.572419,-22.467760,-38.167862,,,,,,
1481988816.81,0.046733,0.187542,-0.480703,-0.011724,-0.000904,0.029614,0.045897,-0.186445,-0.981393,-0.004362,0.001478,0.004815,-6.589603,-22.496332,-38.148067,,,,,,
1481988816.86,0.046431,0.186636,-0.479428,0.014430,0.029149,0.024339,0.045609,-0.185554,-0.981575,0.001663,0.000404,-0.026268,-6.634455,-22.444677,-38.170712,,,,,,
1481988816.91,0.045797,0.186729,-0.478423,-0.011588,-0.008086,0.005574,0.044985,-0.185646,-0.981586,-0.002352,0.004738,-0.002361,-6.630181,-22.458710,-38.163200,,,,,,
1481988816.95,0.043931,0.184485,-0.477678,-0.031568,-0.021264,0.015509,0.043172,-0.183440,-0.982082,-0.004888,0.000716,-0.013920,-6.722826,-22.384666,-38.190483,,,,,,
1481988817.00,0.042130,0.182423,-0.477258,-0.026411,-0.024829,-0.015832,0.041419,-0.181413,-0.982534,-0.004584,-0.003707,-0.030695,-6.809571,-22.278021,-38.237446,,,,,,
1481988817.05,0.041713,0.182335,-0.477922,-0.009088,-0.011745,0.005561,0.041010,-0.181327,-0.982567,0.012808,-0.010690,0.002236,-6.826908,-22.273500,-38.236988,,,,,,
1481988817.10,0.042005,0.182216,-0.477668,-0.010363,-0.022664,0.016460,0.041298,-0.181210,-0.982577,0.008537,-0.008793,-0.013273,-6.830535,-22.256386,-38.246307,,,,,,
1481988817.15,0.042386,0.182571,-0.477303,-0.011584,-0.014145,0.008009,0.041669,-0.181559,-0.982497,0.014529,-0.010290,-0.011140,-6.809885,-22.277920,-38.237450,,,,,,
1481988817.19,0.042180,0.182469,-0.476400,0.008241,-0.003501,0.029382,0.041468,-0.181458,-0.982524,-0.000223,-0.003525,-0.012761,-6.820413,-22.264278,-38.243519,,,,,,
1481988817.24,0.041858,0.182716,-0.475310,-0.007912,-0.015440,0.022414,0.041149,-0.181701,-0.982493,-0.002026,-0.005372,-0.010595,-6.852894,-22.270134,-38.234303,,,,,,
1481988817.29,0.041768,0.183315,-0.475160,0.005907,0.012392,-0.007976,0.041057,-0.182290,-0.982387,-0.003291,-0.007147,-0.006016,-6.887435,-22.260735,-38.233566,,,,,,
1481988817.34,0.041553,0.183556,-0.475473,0.018350,0.035298,-0.011846,0.040843,-0.182527,-0.982352,-0.009120,0.001420,-0.005258,-6.882405,-22.293238,-38.215530,,,,,,
1481988817.39,0.040827,0.182331,-0.475937,-0.036415,-0.019914,-0.010917,0.040139,-0.181323,-0.982604,0.005896,-0.003553,-0.025239,-6.899580,-22.263767,-38.229610,,,,,,
1481988817.43,0.039389,0.181593,-0.476110,0.003475,-0.034836,-0.000502,0.038731,-0.180597,-0.982794,0.013210,0.001611,-0.021600,-6.938193,-22.227547,-38.243698,,,,,,
1481988817.48,0.039047,0.181990,-0.476289,0.000965,-0.003296,-0.010249,0.038393,-0.180987,-0.982736,0.004759,-0.002576,-0.008857,-6.965600,-22.242205,-38.230190,,,,,,
1481988817.53,0.039768,0.181779,-0.476833,-0.009056,-0.015361,0.003170,0.039103,-0.180779,-0.982746,0.008947,-0.005805,-0.015530,-6.914908,-22.248508,-38.235725,,,,,,
1481988817.58,0.039858,0.181539,-0.477509,-0.012724,0.007764,-0.020967,0.039193,-0.180543,-0.982786,-0.005105,0.002763,-0.001375,-6.908040,-22.253513,-38.234055,,,,,,
1481988817.63,0.040045,0.179775,-0.478988,-0.006406,0.012617,-0.039122,0.039389,-0.178808,-0.983095,-0.003989,0.003119,-0.021986,-6.894196,-22.199955,-38.267670,,,,,,
1481988817.67,0.042170,0.180600,-0.481071,-0.007697,-0.014077,-0.018520,0.041471,-0.179620,-0.982862,0.006746,-0.012733,-0.007052,-6.775118,-22.212072,-38.281906,,,,,,
1481988817.72,0.041780,0.180022,-0.481294,-0.025226,-0.026095,-0.000194,0.041093,-0.179051,-0.982981,0.002303,-0.005031,-0.012807,-6.769462,-22.216677,-38.280235,,,,,,
1481988817.77,0.041240,0.179929,-0.481277,-0.001571,-0.016635,0.004286,0.040563,-0.178960,-0.983020,-0.003377,0.000584,-0.013455,-6.784098,-22.213827,-38.279301,,,,,,
1481988817.82,0.040988,0.179716,-0.481793,-0.010265,0.006508,-0.012566,0.040316,-0.178750,-0.983068,-0.001513,-0.005195,-0.008036,-6.800157,-22.205650,-38.281193,,,,,,
1481988817.87,0.041018,0.179298,-0.482542,-0.011419,-0.022514,-0.018436,0.040350,-0.178339,-0.983141,0.006373,-0.004858,-0.021772,-6.781751,-22.202381,-38.286354,,,,,,
1481988817.91,0.040746,0.179685,-0.482822,0.010871,0.001425,0.002845,0.040079,-0.178720,-0.983083,0.002707,-0.010154,-0.013941,-6.785525,-22.205570,-38.283836,,,,,,
1481988817.96,0.041954,0.181186,-0.482866,0.014596,0.017143,0.000319,0.041255,-0.180197,-0.982765,0.008961,-0.004511,-0.003441,-6.773428,-22.240587,-38.265648,,,,,,
1481988818.01,0.042025,0.181391,-0.482258,0.005837,0.018414,0.005234,0.041324,-0.180398,-0.982725,-0.012942,0.005868,-0.013719,-6.755351,-22.270411,-38.251495,,,,,,
1481988818.06,0.041923,0.180835,-0.482764,-0.020208,-0.017626,-0.008722,0.041227,-0.179851,-0.982830,0.001070,0.001125,-0.009465,-6.746685,-22.263288,-38.257168,,,,,,
1481988818.11,0.041857,0.180127,-0.483814,0.027189,0.043796,-0.034867,0.041167,-0.179155,-0.982959,0.001450,-0.003447,-0.014294,-6.747235,-22.229427,-38.276756,,,,,,
1481988818.15,0.043214,0.180461,-0.485502,-0.020130,-0.018780,-0.023162,0.042499,-0.179483,-0.982843,0.008663,-0.006247,-0.022559,-6.670083,-22.262245,-38.271206,,,,,,
1481988818.20,0.044327,0.181352,-0.486188,0.036994,0.032674,0.003582,0.043586,-0.180359,-0.982635,0.006905,-0.004852,-0.001115,-6.625967,-22.270462,-38.274086,,,,,,
1481988818.25,0.044589,0.180790,-0.485746,-0.024088,-0.005561,0.012934,0.043848,-0.179806,-0.982724,-0.001230,0.006131,-0.018435,-6.591415,-22.312901,-38.255333,,,,,,
1481988818.30,0.045590,0.180677,-0.486466,0.018433,0.023245,-0.021424,0.044832,-0.179696,-0.982700,-0.004732,0.001748,-0.014782,-6.592887,-22.257975,-38.287064,,,,,,
1481988818.35,0.046357,0.181204,-0.487633,-0.010229,0.000479,-0.016152,0.045582,-0.180214,-0.982571,0.006954,-0.008644,0.002499,-6.520635,-22.294075,-38.278431,,,,,,
1481988818.39,0.046813,0.180952,-0.487603,-0.017849,0.004084,0.009202,0.046032,-0.179966,-0.982595,0.002506,-0.015560,-0.012995,-6.488102,-22.302446,-38.279083,,,,,,
1481988818.44,0.046509,0.180986,-0.487177,-0.019106,0.005295,0.011620,0.045733,-0.179999,-0.982603,-0.004275,-0.006204,-0.026476,-6.495973,-22.298809,-38.279865,,,,,,
1481988818.49,0.046402,0.181148,-0.487187,0.020926,0.011087,-0.014174,0.045626,-0.180159,-0.982579,-0.007952,0.000090,-0.022029,-6.514509,-22.297752,-38.277332,,,,,,
1481988818.54,0.046536,0.182492,-0.487693,0.013421,0.007498,-0.008046,0.045746,-0.181480,-0.982330,0.000640,-0.004570,0.000564,-6.507717,-22.326939,-38.261471,,,,,,
1481988818.59,0.046094,0.181970,-0.488343,-0.027596,-0.012650,-0.026708,0.045317,-0.180968,-0.982444,-0.006514,-0.002977,-0.010384,-6.502772,-22.362446,-38.241570,,,,,,
1481988818.63,0.046217,0.182176,-0.489348,-0.001442,0.010126,-0.028339,0.045436,-0.181170,-0.982402,-0.004985,-0.000409,-0.011876,-6.497258,-22.347836,-38.251045,,,,,,
1481988818.68,0.046281,0.181996,-0.491061,0.006075,0.020995,-0.039314,0.045501,-0.180993,-0.982431,0.002366,-0.008491,-0.017080,-6.466759,-22.363516,-38.247047,,,,,,
1481988818.73,0.047485,0.182581,-0.491726,0.008396,0.009936,-0.000774,0.046678,-0.181568,-0.982270,-0.000871,-0.002804,-0.018447,-6.401380,-22.392944,-38.240829,,,,,,
1481988818.78,0.048561,0.183184,-0.492395,0.013457,0.037832,-0.026243,0.047729,-0.182161,-0.982110,-0.008636,0.006166,-0.004035,-6.362667,-22.418274,-38.232449,,,,,,
1481988818.83,0.049074,0.182700,-0.493269,0.013442,0.008722,-0.011663,0.048238,-0.181685,-0.982173,0.002116,0.001051,-0.006490,-6.325219,-22.411032,-38.242908,,,,,,
1481988818.87,0.049855,0.182757,-0.493861,-0.022743,0.002971,-0.006379,0.049005,-0.181742,-0.982124,0.001288,-0.004873,0.003288,-6.285480,-22.427057,-38.240063,,,,,,
1481988818.92,0.050274,0.181564,-0.494106,0.012174,0.029333,-0.016559,0.049426,-0.180568,-0.982320,-0.003192,-0.002629,-0.024303,-6.263535,-22.391169,-38.264690,,,,,,
1481988818.97,0.050541,0.181255,-0.494755,-0.008926,-0.016483,-0.017290,0.049692,-0.180264,-0.982362,-0.003061,-0.006763,-0.009032,-6.226612,-22.377256,-38.278851,,,,,,
1481988819.02,0.051307,0.182112,-0.495046,-0.004123,0.008801,0.009014,0.050437,-0.181107,-0.982169,-0.005317,-0.004211,-0.012643,-6.195209,-22.400976,-38.270073,,,,,,
1481988819.07,0.051489,0.182323,-0.495132,0.013436,0.015990,-0.012900,0.050613,-0.181314,-0.982122,-0.009384,-0.003424,-0.013407,-6.202396,-22.408123,-38.264721,,,,,,
1481988819.11,0.052430,0.183816,-0.495418,-0.001662,0.028153,0.008894,0.051523,-0.182782,-0.981802,0.013785,-0.023257,0.000891,-6.188696,-22.430794,-38.253654,,,,,,
1481988819.16,0.052965,0.183296,-0.494297,0.003391,-0.016710,0.015060,0.052054,-0.182271,-0.981869,-0.013907,-0.005778,-0.025485,-6.149626,-22.441263,-38.253819,,,,,,
1481988819.21,0.052051,0.182146,-0.494775,-0.048887,-0.036779,0.002553,0.051167,-0.181141,-0.982125,0.005306,-0.002773,-0.010993,-6.181786,-22.411064,-38.266335,,,,,,
1481988819.26,0.051754,0.182093,-0.494580,0.024586,0.007349,0.006262,0.050876,-0.181088,-0.982150,0.000135,-0.005817,-0.005063,-6.210760,-22.378487,-38.280708,,,,,,
1481988819.31,0.050026,0.181166,-0.493837,-0.029028,-0.004292,0.008177,0.049187,-0.180176,-0.982404,-0.007820,-0.000228,-0.010898,-6.224030,-22.389755,-38.271961,,,,,,
1481988819.35,0.049168,0.179969,-0.493476,-0.030226,-0.018799,0.004649,0.048354,-0.178999,-0.982660,-0.002181,-0.001558,-0.023214,-6.304375,-22.315058,-38.302425,,,,,,
1481988819.40,0.048046,0.179527,-0.493109,0.007150,-0.024011,0.015049,0.047256,-0.178564,-0.982793,0.011247,-0.017206,-0.006923,-6.369384,-22.260773,-38.323254,,,,,,
1481988819.45,0.048131,0.179945,-0.492101,-0.025205,-0.028520,0.003429,0.047336,-0.178975,-0.982714,-0.012927,0.005742,-0.013013,-6.362897,-22.301991,-38.300358,,,,,,
1481988819.50,0.047373,0.180836,-0.491919,0.039518,0.016885,0.010850,0.046583,-0.179852,-0.982590,-0.000440,-0.006183,0.001816,-6.403197,-22.310024,-38.288963,,,,,,
1481988819.55,0.046770,0.181541,-0.490982,-0.023976,-0.029759,0.008234,0.045985,-0.180545,-0.982491,-0.012339,0.002796,0.011361,-6.413045,-22.360739,-38.257717,,,,,,
1481988819.59,0.044476,0.178886,-0.491004,-0.037528,-0.038006,-0.021652,0.043752,-0.177933,-0.983069,-0.004293,0.004075,-0.020059,-6.479798,-22.298519,-38.282776,,,,,,
1481988819.64,0.043401,0.178878,-0.491967,0.037144,0.004863,-0.008322,0.042695,-0.177925,-0.983117,0.015350,-0.012566,-0.023566,-6.553219,-22.247261,-38.300095,,,,,,
1481988819.69,0.045074,0.180775,-0.491760,0.009637,0.009910,0.004027,0.044324,-0.179792,-0.982706,0.006564,-0.013384,-0.018301,-6.503953,-22.306660,-38.273937,,,,,,
1481988819.74,0.044295,0.181245,-0.490950,0.009589,-0.016801,0.024615,0.043555,-0.180254,-0.982655,0.002297,-0.004850,-0.014369,-6.528267,-22.335670,-38.252872,,,,,,
1481988819.79,0.042227,0.180923,-0.489661,-0.019013,-0.034678,0.015420,0.041525,-0.179938,-0.982801,-0.007056,0.005515,-0.002581,-6.610348,-22.329214,-38.242546,,,,,,
1481988819.83,0.039005,0.178331,-0.489308,-0.063642,-0.109264,-0.006555,0.038377,-0.177388,-0.983393,-0.011796,0.006520,-0.018683,-6.737557,-22.225620,-38.280670,,,,,,
1481988819.88,0.036410,0.175584,-0.490620,-0.013870,-0.020058,-0.020822,0.035842,-0.174683,-0.983972,0.010118,-0.005843,-0.013770,-6.847837,-22.130680,-38.316090,,,,,,
1481988819.93,0.037359,0.175992,-0.490851,-0.023985,-0.023703,0.007003,0.036773,-0.175085,-0.983866,-0.000457,-0.005427,-0.002034,-6.789046,-22.140018,-38.321156,,,,,,
1481988819.98,0.036457,0.173948,-0.490907,-0.011506,0.013778,-0.010175,0.035899,-0.173072,-0.984255,-0.005885,-0.000070,-0.021299,-6.821022,-22.067623,-38.357220,,,,,,
1481988820.03,0.036864,0.173531,-0.492053,-0.006349,-0.004336,-0.035431,0.036302,-0.172662,-0.984312,-0.004365,0.000939,-0.011400,-6.799037,-22.052515,-38.369812,,,,,,
1481988820.07,0.038880,0.174483,-0.494007,-0.007724,0.023472,-0.021100,0.038280,-0.173599,-0.984072,0.008580,-0.005021,-0.018339,-6.711712,-22.102013,-38.356705,,,,,,
1481988820.12,0.038412,0.173824,-0.494964,0.008544,-0.000887,-0.021185,0.037823,-0.172950,-0.984204,0.005817,-0.004174,-0.029010,-6.694995,-22.084595,-38.369656,,,,,,
1481988820.17,0.039366,0.174893,-0.495725,-0.006453,-0.006837,-0.012549,0.038755,-0.174002,-0.983982,-0.002195,0.001929,-0.007061,-6.641047,-22.140326,-38.346909,,,,,,
1481988820.22,0.040152,0.175213,-0.496209,0.005971,0.001504,-0.006721,0.039527,-0.174317,-0.983896,0.004342,-0.001326,-0.016791,-6.635313,-22.136335,-38.350201,,,,,,
1481988820.27,0.039536,0.174743,-0.496755,0.001126,0.002859,-0.035555,0.038924,-0.173855,-0.984002,0.000932,-0.004093,-0.013710,-6.621336,-22.140013,-38.350494,,,,,,
1481988820.31,0.039903,0.174727,-0.498159,-0.001453,0.022224,-0.027189,0.039285,-0.173840,-0.983990,0.010810,-0.007267,-0.011051,-6.595730,-22.146441,-38.351196,,,,,,
1481988820.36,0.041183,0.175479,-0.498956,-0.007697,0.013784,-0.021055,0.040540,-0.174580,-0.983808,0.004047,-0.010509,-0.027499,-6.538048,-22.173588,-38.345387,,,,,,
1481988820.41,0.042781,0.176704,-0.499653,0.023348,0.029174,-0.001044,0.042102,-0.175785,-0.983528,0.004986,-0.010296,-0.008080,-6.462903,-22.229385,-38.325817,,,,,,
1481988820.46,0.042919,0.176964,-0.499633,-0.002795,-0.005725,0.004253,0.042236,-0.176042,-0.983476,-0.002670,-0.000960,-0.014235,-6.444320,-22.247501,-38.318432,,,,,,
1481988820.51,0.043840,0.177445,-0.499916,0.022089,0.043726,-0.004708,0.043138,-0.176515,-0.983352,-0.003786,0.000047,-0.004029,-6.443806,-22.245102,-38.319912,,,,,,
1481988820.55,0.043000,0.177009,-0.499901,-0.017680,-0.001901,-0.013635,0.042315,-0.176086,-0.983465,-0.006320,-0.003220,-0.014490,-6.407551,-22.265362,-38.314224,,,,,,
1481988820.60,0.043202,0.176666,-0.501021,-0.012661,0.001712,-0.020936,0.042516,-0.175749,-0.983517,0.003306,-0.006914,-0.001209,-6.436937,-22.247646,-38.319588,,,,,,
1481988820.65,0.043483,0.176068,-0.501685,-0.032614,-0.010237,-0.015821,0.042797,-0.175160,-0.983609,0.000889,-0.003871,-0.029391,-6.397592,-22.234898,-38.333572,,,,,,
1481988820.70,0.044527,0.176267,-0.503218,0.026031,0.023211,-0.034750,0.043823,-0.175356,-0.983529,0.011933,-0.009993,-0.017218,-6.344340,-22.239407,-38.339809,,,,,,
1481988820.75,0.045797,0.177130,-0.503867,-0.008934,-0.031072,-0.002774,0.045065,-0.176206,-0.983321,0.009943,-0.008883,-0.018159,-6.288034,-22.275890,-38.327904,,,,,,
1481988820.79,0.046581,0.177728,-0.503923,0.008383,0.025662,0.001563,0.045830,-0.176793,-0.983180,-0.001717,-0.005091,0.003642,-6.252625,-22.305315,-38.316582,,,,,,
1481988820.84,0.045402,0.176498,-0.503664,-0.013952,0.007748,-0.013725,0.044682,-0.175583,-0.983450,-0.011509,0.003128,-0.009561,-6.276647,-22.269445,-38.333515,,,,,,
1481988820.89,0.045177,0.174681,-0.504611,-0.041283,-0.018608,-0.024100,0.044475,-0.173794,-0.983777,0.004948,-0.001530,-0.021106,-6.288888,-22.232466,-38.352966,,,,,,
1481988820.94,0.045463,0.174509,-0.505134,0.006004,0.007570,-0.013968,0.044757,-0.173624,-0.983794,-0.001834,-0.001989,-0.013688,-6.282962,-22.183592,-38.382229,,,,,,
1481988820.99,0.044930,0.174524,-0.506272,-0.003867,-0.027433,-0.019702,0.044232,-0.173640,-0.983815,0.014178,-0.011037,-0.008326,-6.268680,-22.203846,-38.372849,,,,,,
1481988821.03,0.045773,0.175949,-0.506485,0.002170,0.000258,0.008982,0.045050,-0.175043,-0.983530,0.002954,-0.008398,-0.003897,-6.241665,-22.246300,-38.352657,,,,,,
1481988821.08,0.045488,0.175695,-0.505752,0.003394,-0.008257,0.017432,0.044772,-0.174793,-0.983587,0.000226,-0.007413,-0.024744,-6.255872,-22.244047,-38.351646,,,,,,
1481988821.13,0.045339,0.176610,-0.505603,-0.003982,-0.016605,0.000710,0.044619,-0.175693,-0.983433,0.009230,-0.009106,-0.006465,-6.281184,-22.264853,-38.335438,,,,,,
1481988821.18,0.045762,0.177302,-0.505203,0.017132,0.006182,0.008771,0.045029,-0.176374,-0.983293,0.002121,-0.004915,-0.025527,-6.268703,-22.287439,-38.324356,,,,,,
1481988821.23,0.045836,0.178775,-0.504563,0.014587,0.013441,0.015990,0.045090,-0.177824,-0.983029,-0.000779,-0.002870,0.001767,-6.260440,-22.322464,-38.305313,,,,,,
1481988821.27,0.045833,0.178829,-0.503593,-0.005362,0.001496,0.019902,0.045086,-0.177878,-0.983019,-0.000774,-0.004755,-0.012022,-6.275398,-22.356659,-38.282921,,,,,,
1481988821.32,0.046557,0.179073,-0.503752,0.030896,0.035190,-0.011995,0.045796,-0.178118,-0.982943,0.001613,0.001223,0.011553,-6.265484,-22.348131,-38.289520,,,,,,
1481988821.37,0.046856,0.178004,-0.503364,-0.063836,-0.014854,-0.002175,0.046099,-0.177065,-0.983119,-0.010637,0.009096,-0.012807,-6.242990,-22.326023,-38.306087,,,,,,
1481988821.42,0.046281,0.176974,-0.503656,0.000947,0.006342,0.002951,0.045541,-0.176052,-0.983327,0.001364,-0.000843,0.007497,-6.266461,-22.272341,-38.333496,,,,,,
1481988821.47,0.045727,0.175339,-0.503400,-0.047599,-0.007708,-0.009629,0.045010,-0.174442,-0.983638,-0.010632,0.001941,-0.012089,-6.285304,-22.221458,-38.359932,,,,,,
1481988821.51,0.045035,0.174629,-0.503855,-0.010102,-0.009200,-0.024525,0.044336,-0.173743,-0.983793,-0.004037,-0.002527,-0.013430,-6.286410,-22.198086,-38.373283,,,,,,
1481988821.56,0.044832,0.174117,-0.505362,0.006132,0.002795,-0.033205,0.044139,-0.173239,-0.983890,0.011952,-0.014277,-0.002590,-6.299002,-22.183207,-38.379822,,,,,,
1481988821.61,0.046774,0.174118,-0.505485,-0.042771,-0.013930,0.025246,0.046050,-0.173240,-0.983802,0.007371,-0.005792,-0.014183,-6.265849,-22.171650,-38.391926,,,,,,
1481988821.66,0.046207,0.172681,-0.504653,-0.001587,-0.000940,0.015052,0.045503,-0.171824,-0.984076,0.005171,-0.005940,-0.029916,-6.243645,-22.121628,-38.424385,,,,,,
1481988821.71,0.046059,0.172101,-0.503817,-0.005285,-0.014213,0.011548,0.045362,-0.171253,-0.984182,-0.000669,0.000141,-0.027796,-6.254592,-22.104321,-38.432564,,,,,,
1481988821.75,0.045798,0.172436,-0.503020,0.010849,0.003774,0.019693,0.045103,-0.171583,-0.984137,0.001437,-0.002932,-0.009897,-6.284292,-22.096977,-38.431942,,,,,,
1481988821.80,0.044643,0.172324,-0.502117,-0.002739,0.005200,-0.006628,0.043968,-0.171472,-0.984207,-0.005912,-0.000616,0.003998,-6.331170,-22.084873,-38.431202,,,,,,
1481988821.85,0.045300,0.171480,-0.501972,-0.042776,0.013955,0.014283,0.044620,-0.170640,-0.984323,0.006466,-0.001326,-0.003318,-6.320558,-22.088856,-38.430660,,,,,,
1481988821.90,0.044832,0.170015,-0.501707,-0.030137,0.011535,-0.017155,0.044171,-0.169197,-0.984592,0.001056,-0.002144,-0.014340,-6.320164,-22.025623,-38.467003,,,,,,
1481988821.95,0.045017,0.168174,-0.502294,-0.023876,-0.005478,-0.014745,0.044367,-0.167382,-0.984893,0.009634,-0.009513,-0.040162,-6.326880,-21.960178,-38.503296,,,,,,
1481988821.99,0.047516,0.170609,-0.502448,-0.006662,0.007529,0.029519,0.046809,-0.169782,-0.984369,0.009099,-0.009035,0.011209,-6.249392,-21.999882,-38.493286,,,,,,
1481988822.04,0.046447,0.169849,-0.501345,0.013391,0.012269,0.008789,0.045762,-0.169033,-0.984547,-0.000840,-0.000614,-0.020046,-6.285102,-21.984148,-38.496460,,,,,,
1481988822.09,0.046438,0.169625,-0.499840,-0.026706,-0.014185,0.055143,0.045755,-0.168813,-0.984586,-0.006357,0.007009,-0.016025,-6.278824,-21.997299,-38.489971,,,,,,
1481988822.14,0.043830,0.168304,-0.498261,-0.003935,-0.019010,-0.005295,0.043197,-0.167510,-0.984924,-0.019835,0.010741,0.002105,-6.426222,-21.903645,-38.519043,,,,,,
1481988822.19,0.042952,0.166833,-0.498380,-0.035115,-0.011457,-0.008560,0.042342,-0.166060,-0.985206,0.000245,-0.007631,-0.026528,-6.440198,-21.877192,-38.531742,,,,,,
1481988822.23,0.043748,0.167502,-0.498609,0.003400,0.005068,0.013761,0.043122,-0.166720,-0.985061,0.016708,-0.015333,-0.003617,-6.434984,-21.867554,-38.538086,,,,,,
1481988822.28,0.042763,0.167611,-0.497525,-0.010316,0.010038,0.011499,0.042151,-0.166827,-0.985085,-0.008047,-0.005674,-0.017769,-6.442843,-21.859148,-38.541538,,,,,,
1481988822.33,0.042197,0.166938,-0.497149,-0.037681,-0.035745,0.016863,0.041598,-0.166164,-0.985220,0.014448,-0.004262,-0.028513,-6.498636,-21.850266,-38.537209,,,,,,
1481988822.38,0.040442,0.166182,-0.495677,0.027120,-0.008474,0.015942,0.039874,-0.165418,-0.985417,-0.002643,0.002470,-0.019847,-6.584568,-21.810011,-38.545425,,,,,,
1481988822.43,0.039504,0.167176,-0.495524,-0.020139,-0.026146,-0.002654,0.038943,-0.166399,-0.985289,0.003370,-0.002196,0.009017,-6.631407,-21.842045,-38.519249,,,,,,
1481988822.47,0.039619,0.166214,-0.495772,0.024696,0.042528,-0.019172,0.039063,-0.165449,-0.985444,0.001586,0.002897,-0.009017,-6.642174,-21.806728,-38.537399,,,,,,
1481988822.52,0.043081,0.168067,-0.497166,0.032145,0.067903,-0.022994,0.042461,-0.167277,-0.984995,0.000859,-0.004003,-0.004812,-6.543570,-21.856304,-38.526176,,,,,,
1481988822.57,0.044161,0.167559,-0.497988,-0.052536,-0.017342,-0.013133,0.043529,-0.166776,-0.985034,-0.002330,0.000821,-0.020765,-6.408538,-21.906908,-38.520134,,,,,,
1481988822.62,0.043636,0.167053,-0.498866,0.072130,0.020306,-0.017242,0.043015,-0.166277,-0.985140,0.004699,-0.009962,-0.027860,-6.432804,-21.844652,-38.551430,,,,,,
1481988822.67,0.043216,0.167278,-0.499763,-0.034950,-0.039239,-0.027689,0.042599,-0.166499,-0.985121,-0.001309,-0.002813,-0.015032,-6.420034,-21.882034,-38.532356,,,,,,
1481988822.71,0.044041,0.167867,-0.501094,0.035878,0.041183,-0.009674,0.043408,-0.167080,-0.984987,0.013889,-0.011555,-0.012770,-6.387665,-21.901249,-38.526821,,,,,,
1481988822.76,0.042734,0.167629,-0.501134,-0.005066,-0.038331,-0.018430,0.042122,-0.166845,-0.985083,-0.005333,0.004644,-0.000498,-6.409179,-21.910982,-38.517712,,,,,,
1481988822.81,0.042295,0.167318,-0.502346,-0.003869,-0.005640,-0.022208,0.041692,-0.166538,-0.985153,0.001567,-0.002331,-0.006378,-6.427278,-21.897949,-38.522106,,,,,,
1481988822.86,0.042347,0.167629,-0.503806,-0.002517,-0.032252,-0.030526,0.041741,-0.166845,-0.985099,0.010444,-0.010203,-0.003045,-6.424232,-21.894583,-38.524529,,,,,,
1481988822.91,0.043096,0.168112,-0.504370,-0.015206,-0.015316,0.005658,0.042475,-0.167321,-0.984987,0.012563,-0.009101,-0.012770,-6.380121,-21.938139,-38.507076,,,,,,
1481988822.95,0.044771,0.168726,-0.504515,-0.020228,-0.014079,0.011732,0.044120,-0.167926,-0.984812,0.003731,-0.001538,-0.007467,-6.301631,-21.972942,-38.500156,,,,,,
1481988823.00,0.043714,0.167926,-0.504329,0.010965,0.015966,-0.003234,0.043085,-0.167138,-0.984992,0.002813,-0.002540,-0.014184,-6.345340,-21.934486,-38.514900,,,,,,
1481988823.05,0.043603,0.167998,-0.504475,-0.028882,-0.009099,-0.005036,0.042976,-0.167209,-0.984984,0.001534,-0.004117,-0.013215,-6.344278,-21.943316,-38.510048,,,,,,
1481988823.10,0.043133,0.167039,-0.504693,0.025947,0.003715,-0.000953,0.042519,-0.166263,-0.985164,0.002220,0.001407,-0.036396,-6.358571,-21.900463,-38.532078,,,,,,
1481988823.15,0.043200,0.168020,-0.505318,-0.015092,-0.017659,-0.014794,0.042578,-0.167231,-0.984998,0.001992,-0.004782,0.002301,-6.351955,-21.929794,-38.516483,,,,,,
1481988823.19,0.044221,0.167818,-0.505954,-0.011428,0.000444,-0.006499,0.043586,-0.167031,-0.984988,0.008950,-0.006903,-0.019392,-6.322746,-21.945786,-38.512184,,,,,,
1481988823.24,0.045280,0.168631,-0.506335,0.032181,0.040040,-0.014440,0.044623,-0.167833,-0.984805,0.002069,-0.001830,0.003360,-6.294251,-21.951200,-38.513763,,,,,,
1481988823.29,0.046333,0.168454,-0.506108,-0.051389,-0.014997,0.009709,0.045661,-0.167658,-0.984787,-0.003486,0.002421,-0.006500,-6.210093,-21.981926,-38.509899,,,,,,
1481988823.34,0.045552,0.167078,-0.505979,-0.006479,-0.026301,0.011619,0.044902,-0.166302,-0.985052,-0.003337,0.006634,-0.004709,-6.230876,-21.933472,-38.534164,,,,,,
1481988823.39,0.043329,0.165558,-0.505831,-0.018892,-0.023724,-0.001481,0.042723,-0.164803,-0.985401,-0.001174,-0.002571,0.002002,-6.326742,-21.862038,-38.559132,,,,,,
1481988823.43,0.043272,0.165491,-0.506284,-0.026379,-0.006688,-0.007487,0.042668,-0.164736,-0.985414,-0.001133,-0.002393,-0.000685,-6.323661,-21.860485,-38.560513,,,,,,
1481988823.48,0.042620,0.162666,-0.506616,-0.028826,-0.021178,-0.011000,0.042045,-0.161950,-0.985903,0.004952,-0.004631,-0.025556,-6.335677,-21.798634,-38.593544,,,,,,
1481988823.53,0.043344,0.163334,-0.506747,-0.018962,-0.011646,0.008092,0.042754,-0.162609,-0.985764,0.009599,-0.011555,-0.001129,-6.343337,-21.751823,-38.618687,,,,,,
1481988823.58,0.043492,0.163562,-0.506031,-0.002823,0.002707,0.017457,0.042898,-0.162833,-0.985721,0.007379,-0.006219,-0.007810,-6.318139,-21.775291,-38.609589,,,,,,
1481988823.63,0.041976,0.162568,-0.505176,-0.026391,-0.010333,-0.002655,0.041411,-0.161853,-0.985946,-0.008101,0.002642,-0.006257,-6.372501,-21.751175,-38.614250,,,,,,
1481988823.67,0.041077,0.161136,-0.504932,-0.015192,-0.015303,0.004453,0.040533,-0.160440,-0.986213,-0.000143,-0.002844,-0.019814,-6.424284,-21.685055,-38.642845,,,,,,
1481988823.72,0.040733,0.160064,-0.504631,-0.055133,-0.018604,0.012179,0.040201,-0.159382,-0.986398,0.005850,-0.007901,-0.025809,-6.448477,-21.643829,-38.661926,,,,,,
1481988823.77,0.040053,0.159957,-0.503622,0.000880,0.002640,0.025839,0.039531,-0.159276,-0.986442,0.006520,-0.005809,-0.004860,-6.483945,-21.626867,-38.665485,,,,,,
1481988823.82,0.039345,0.158849,-0.502831,0.002218,0.017243,0.001681,0.038839,-0.158182,-0.986646,-0.001181,-0.003348,-0.027240,-6.506776,-21.600220,-38.676544,,,,,,
1481988823.87,0.038628,0.157934,-0.502936,-0.018821,-0.028530,-0.011087,0.038137,-0.157278,-0.986818,0.001474,-0.004541,-0.022155,-6.534397,-21.566284,-38.690823,,,,,,
1481988823.91,0.038804,0.158643,-0.502910,-0.011535,-0.021459,0.024900,0.038307,-0.157978,-0.986699,0.005806,-0.006588,-0.000880,-6.564257,-21.546602,-38.696732,,,,,,
1481988823.96,0.037203,0.157438,-0.501846,0.002323,-0.016635,-0.004180,0.036734,-0.156789,-0.986949,-0.006064,0.003880,-0.024663,-6.618536,-21.514704,-38.705231,,,,,,
1481988824.01,0.037225,0.157749,-0.501000,-0.011559,-0.011777,0.024855,0.036754,-0.157096,-0.986899,-0.003368,0.005363,0.005790,-6.622254,-21.532040,-38.694958,,,,,,
1481988824.06,0.035431,0.155114,-0.500256,-0.020178,-0.032233,0.010612,0.034998,-0.154492,-0.987374,0.001364,0.005521,-0.023750,-6.704521,-21.417809,-38.744160,,,,,,
1481988824.11,0.035299,0.154726,-0.500234,-0.003866,0.000433,-0.022239,0.034870,-0.154110,-0.987438,-0.000721,-0.000340,-0.009937,-6.718198,-21.400417,-38.751396,,,,,,
1481988824.15,0.035176,0.153454,-0.501008,-0.006391,-0.017750,-0.008883,0.034756,-0.152853,-0.987638,0.007130,-0.004206,-0.026980,-7.465687,-23.942301,-35.723904,,,,,,
1481988824.20,0.035780,0.154689,-0.501101,-0.001516,-0.008173,0.010270,0.035345,-0.154072,-0.987427,0.008447,-0.007579,0.002060,-7.462720,-23.937752,-35.727573,,,,,,
1481988824.25,0.036333,0.155552,-0.500700,0.017163,0.029229,0.001441,0.035886,-0.154925,-0.987274,0.001834,-0.006589,-0.010864,-7.440413,-23.977932,-35.705276,,,,,,
1481988824.30,0.036671,0.155256,-0.499887,-0.031534,-0.014029,0.029924,0.036221,-0.154633,-0.987308,-0.003644,0.003373,-0.012753,-7.413227,-23.997284,-35.697929,,,,,,
1481988824.35,0.035521,0.154074,-0.499562,-0.008942,-0.018981,0.004394,0.035093,-0.153465,-0.987531,-0.000684,-0.003395,-0.018939,-7.468849,-23.938126,-35.726044,,,,,,
1481988824.39,0.034641,0.154017,-0.499272,-0.003969,-0.006914,0.003073,0.034224,-0.153409,-0.987570,-0.000456,-0.007540,-0.020655,-7.505645,-23.925774,-35.726608,,,,,,
1481988824.44,0.034350,0.154803,-0.498910,-0.006493,-0.005706,0.009118,0.033933,-0.154185,-0.987459,-0.002057,-0.006185,-0.004728,-7.525012,-23.958033,-35.700909,,,,,,
1481988824.49,0.032930,0.153225,-0.498588,-0.013897,-0.016497,-0.002777,0.032538,-0.152626,-0.987748,-0.007636,0.006340,-0.033675,-7.541359,-23.939152,-35.710121,,,,,,
1481988824.54,0.033466,0.154500,-0.499458,0.039734,0.023038,-0.019266,0.033061,-0.153886,-0.987535,0.005574,-0.005248,-0.006422,-7.572690,-23.911057,-35.722309,,,,,,
1481988824.59,0.032723,0.154116,-0.499412,-0.036332,-0.025992,-0.001254,0.032329,-0.153506,-0.987619,-0.002574,-0.001081,-0.020056,-7.555643,-23.949024,-35.700481,,,,,,
1481988824.63,0.032594,0.154233,-0.499589,0.048380,0.002287,0.006002,0.032201,-0.153623,-0.987605,0.015116,-0.008411,-0.030004,-7.576840,-23.933161,-35.706627,,,,,,
1481988824.68,0.032059,0.154941,-0.499255,-0.041326,-0.041712,0.006102,0.031670,-0.154321,-0.987513,-0.000618,-0.000983,0.001490,-7.592684,-23.970825,-35.677986,,,,,,
1481988824.73,0.031667,0.154206,-0.499233,0.008467,0.025680,-0.003248,0.031286,-0.153596,-0.987638,0.001185,-0.002242,-0.013155,-7.622012,-23.936346,-35.694874,,,,,,
1481988824.78,0.033169,0.154394,-0.500466,-0.007560,-0.003137,-0.026992,0.032768,-0.153781,-0.987561,0.018776,-0.009763,-0.014804,-7.576085,-23.942856,-35.700287,,,,,,
1481988824.83,0.033975,0.154838,-0.500259,-0.001511,-0.017872,0.016334,0.033562,-0.154220,-0.987466,0.008369,-0.004532,-0.025183,-7.515587,-23.965862,-35.697632,,,,,,
1481988824.87,0.034453,0.155739,-0.499648,-0.000327,0.001476,0.021043,0.034029,-0.155111,-0.987311,0.004759,-0.000865,-0.002679,-7.527443,-23.983389,-35.683365,,,,,,
1481988824.92,0.034089,0.155689,-0.498501,-0.006475,0.000380,0.004272,0.033670,-0.155061,-0.987331,-0.010569,0.006715,-0.005543,-7.520771,-23.993801,-35.677769,,,,,,
1481988824.97,0.033851,0.154465,-0.498533,-0.025106,-0.012732,-0.006272,0.033441,-0.153851,-0.987528,0.000723,0.006146,-0.017431,-7.550475,-23.960209,-35.694069,,,,,,
1481988825.02,0.034812,0.154438,-0.498953,-0.003937,-0.011727,-0.000518,0.034391,-0.153825,-0.987499,0.009142,-0.008071,-0.005985,-7.507498,-23.944632,-35.713581,,,,,,
1481988825.07,0.034666,0.154135,-0.498565,-0.007726,-0.000816,0.004292,0.034248,-0.153525,-0.987551,-0.007072,-0.002893,-0.012739,-7.507459,-23.930422,-35.723110,,,,,,
1481988825.11,0.034818,0.153829,-0.498755,-0.021404,0.006609,-0.006408,0.034400,-0.153223,-0.987593,0.001504,-0.004141,-0.012255,-7.514627,-23.924431,-35.725616,,,,,,
1481988825.16,0.036023,0.153781,-0.499382,0.019778,0.023238,-0.017823,0.035590,-0.153176,-0.987558,0.007943,-0.001762,-0.020926,-7.498160,-23.912910,-35.736786,,,,,,
1481988825.21,0.036248,0.154826,-0.500292,0.048482,0.010869,-0.015709,0.035806,-0.154208,-0.987389,0.001669,-0.008023,-0.011726,-7.441846,-23.934982,-35.733788,,,,,,
1481988825.26,0.036868,0.155567,-0.500531,0.018483,0.024427,-0.009387,0.036414,-0.154940,-0.987252,-0.005546,0.004702,-0.011801,-7.401805,-24.006866,-35.693855,,,,,,
1481988825.31,0.038551,0.157277,-0.500913,0.013429,0.013515,0.007577,0.038066,-0.156630,-0.986924,-0.000911,-0.001238,0.001862,-7.344711,-24.059040,-35.670517,,,,,,
1481988825.35,0.036832,0.155892,-0.500562,-0.016377,0.009018,-0.016110,0.036377,-0.155262,-0.987203,-0.020142,0.010196,-0.009806,-7.365773,-24.038265,-35.680176,,,,,,
1481988825.40,0.035000,0.153744,-0.502434,-0.008572,-0.019926,-0.067827,0.034580,-0.153139,-0.987599,-0.013615,0.009157,-0.026652,-7.443986,-23.948229,-35.724464,,,,,,
1481988825.45,0.036544,0.154816,-0.505712,-0.005033,0.005367,-0.037898,0.036099,-0.154198,-0.987380,0.028080,-0.018333,0.000198,-7.399477,-23.972157,-35.717659,,,,,,
1481988825.50,0.038228,0.156205,-0.506509,-0.005154,-0.009267,-0.006534,0.037754,-0.155570,-0.987103,0.009518,-0.011483,-0.011813,-7.268628,-24.051548,-35.691147,,,,,,
1481988825.55,0.038404,0.156543,-0.506677,0.007188,0.026909,0.003979,0.037925,-0.155905,-0.987044,0.008812,-0.008738,-0.014314,-7.273002,-24.067139,-35.679745,,,,,,
1481988825.59,0.040069,0.157866,-0.506744,0.039641,0.037551,-0.004894,0.039560,-0.157212,-0.986772,-0.001856,-0.004059,-0.012099,-7.191277,-24.124273,-35.657719,,,,,,
1481988825.64,0.040399,0.158177,-0.506814,-0.021444,0.001737,0.004447,0.039884,-0.157518,-0.986710,-0.001950,-0.001097,0.001878,-7.165605,-24.144966,-35.648880,,,,,,
1481988825.69,0.040593,0.158150,-0.506432,0.020897,0.030411,0.005000,0.040076,-0.157492,-0.986707,-0.009314,0.001699,-0.017276,-7.175922,-24.135580,-35.653156,,,,,,
1481988825.74,0.040687,0.157720,-0.507281,-0.023776,-0.007830,-0.023163,0.040171,-0.157067,-0.986771,-0.001566,-0.002799,-0.018997,-7.146990,-24.136030,-35.658665,,,,,,
1481988825.79,0.041076,0.158239,-0.508067,0.003573,-0.010565,-0.004226,0.040552,-0.157580,-0.986673,0.000281,-0.003782,-0.012716,-7.122401,-24.155567,-35.650356,,,,,,
1481988825.83,0.039847,0.156739,-0.508316,-0.041328,-0.015016,-0.002452,0.039348,-0.156098,-0.986957,-0.000819,-0.000610,-0.017056,-7.144849,-24.139603,-35.656677,,,,,,
1481988825.88,0.040499,0.157487,-0.509143,0.008552,0.013633,-0.011622,0.039986,-0.156837,-0.986815,0.000800,-0.011025,-0.011598,-7.145733,-24.101322,-35.682381,,,,,,
1481988825.93,0.040602,0.157778,-0.509380,0.024741,0.009835,-0.004581,0.040087,-0.157124,-0.986765,0.010526,-0.008830,-0.022512,-7.143630,-24.133080,-35.661331,,,,,,
1481988825.98,0.042625,0.159653,-0.508844,-0.000446,0.005040,0.045100,0.042070,-0.158976,-0.986386,0.008375,-0.006460,0.002224,-7.051069,-24.214695,-35.624409,,,,,,
1481988826.03,0.041670,0.158876,-0.507260,-0.006506,0.016129,0.005402,0.041133,-0.158209,-0.986549,-0.022746,0.014319,-0.006295,-7.060323,-24.211926,-35.624462,,,,,,
1481988826.07,0.040061,0.157223,-0.507883,-0.009993,-0.016399,-0.031717,0.039556,-0.156576,-0.986874,-0.011785,0.004476,-0.015629,-7.163392,-24.119625,-35.666473,,,,,,
1481988826.12,0.040953,0.158318,-0.508898,0.004759,0.013629,-0.001946,0.040430,-0.157657,-0.986666,0.007391,-0.009381,0.005465,-7.136019,-24.139851,-35.658276,,,,,,
1481988826.17,0.041386,0.158166,-0.508496,-0.015230,0.001656,0.010391,0.040858,-0.157507,-0.986672,0.000768,-0.006037,-0.012214,-7.097091,-24.168791,-35.646439,,,,,,
1481988826.22,0.041377,0.158522,-0.507952,-0.016474,-0.010458,0.015278,0.040846,-0.157859,-0.986616,-0.000868,-0.006844,-0.008836,-7.104963,-24.158581,-35.651791,,,,,,
1481988826.27,0.041467,0.158125,-0.507480,-0.002710,-0.009337,0.006678,0.040938,-0.157467,-0.986675,0.003069,-0.005665,-0.024540,-7.128175,-24.141403,-35.658794,,,,,,
1481988826.31,0.041737,0.159030,-0.507081,-0.006453,-0.010518,0.007934,0.041199,-0.158360,-0.986521,0.001709,-0.006175,-0.001287,-7.119466,-24.164625,-35.644802,,,,,,
1481988826.36,0.040624,0.159356,-0.506249,0.007240,0.005097,0.007694,0.040099,-0.158683,-0.986515,-0.005003,-0.004693,-0.008663,-7.162528,-24.173588,-35.630093,,,,,,
1481988826.41,0.041094,0.159807,-0.505470,-0.011537,-0.004488,0.024821,0.040559,-0.159128,-0.986425,-0.006761,-0.000342,-0.003825,-7.152534,-24.193953,-35.618279,,,,,,
1481988826.46,0.039039,0.158189,-0.504799,-0.002609,-0.014133,-0.010148,0.038542,-0.157530,-0.986762,-0.002012,0.001066,-0.031534,-7.210820,-24.151268,-35.635490,,,,,,
1481988826.51,0.039004,0.158624,-0.505063,0.017260,0.009879,-0.003281,0.038505,-0.157960,-0.986694,0.000130,-0.002364,-0.013656,-7.260982,-24.129747,-35.639881,,,,,,
1481988826.55,0.039736,0.160407,-0.505549,0.003507,0.017249,0.001667,0.039216,-0.159720,-0.986383,0.003738,-0.015405,-0.000479,-7.245079,-24.171556,-35.614777,,,,,,
1481988826.60,0.039825,0.159992,-0.505092,-0.020096,-0.021277,-0.000271,0.039306,-0.159310,-0.986446,-0.001067,-0.006095,-0.028218,-7.215631,-24.194437,-35.605217,,,,,,
1481988826.65,0.039384,0.159752,-0.505017,-0.008941,-0.017786,0.011612,0.038872,-0.159074,-0.986501,-0.005761,0.006837,-0.007899,-7.232480,-24.184256,-35.608719,,,,,,
1481988826.70,0.038028,0.158890,-0.505164,0.009920,-0.002084,-0.024801,0.037540,-0.158222,-0.986690,-0.013874,0.005985,-0.013585,-7.260828,-24.167002,-35.614662,,,,,,
1481988826.75,0.038003,0.158544,-0.506888,-0.018694,-0.007841,-0.036461,0.037517,-0.157880,-0.986745,0.007664,-0.003848,-0.023234,-7.257074,-24.153406,-35.624645,,,,,,
1481988826.79,0.039036,0.159352,-0.508461,-0.004028,0.064568,-0.006888,0.038532,-0.158678,-0.986578,0.020565,-0.020201,0.022528,-7.252789,-24.152269,-35.626293,,,,,,
1481988826.84,0.040093,0.159232,-0.508538,-0.015197,-0.014104,0.015281,0.039575,-0.158560,-0.986556,-0.002664,0.008398,-0.009080,-7.138417,-24.181534,-35.629543,,,,,,
1481988826.89,0.040758,0.159380,-0.508724,0.016012,0.025654,-0.006953,0.040230,-0.158706,-0.986506,-0.002663,0.002990,-0.009374,-7.143639,-24.194452,-35.619724,,,,,,
1481988826.94,0.042090,0.159315,-0.509345,-0.012658,0.004098,-0.001687,0.041545,-0.158642,-0.986462,0.004064,0.000057,-0.014393,-7.066476,-24.207567,-35.626202,,,,,,
1481988826.99,0.041640,0.158747,-0.509390,-0.001386,-0.005668,-0.006594,0.041105,-0.158081,-0.986570,0.003130,-0.004334,-0.019961,-7.084604,-24.183298,-35.639084,,,,,,
1481988827.03,0.042812,0.159714,-0.509245,-0.003990,-0.012996,0.018748,0.042255,-0.159036,-0.986368,0.004697,-0.004157,-0.012533,-7.046994,-24.209400,-35.628819,,,,,,
1481988827.08,0.043433,0.160336,-0.508377,-0.007790,-0.002091,0.025966,0.042862,-0.159650,-0.986243,0.003494,-0.007113,-0.003320,-7.039036,-24.223333,-35.620918,,,,,,
1481988827.13,0.042997,0.159013,-0.506958,-0.039010,0.016346,0.025058,0.042442,-0.158344,-0.986471,-0.008109,0.002902,-0.034280,-7.065114,-24.221027,-35.617325,,,,,,
1481988827.18,0.042669,0.158262,-0.506371,0.021039,0.017155,-0.010587,0.042123,-0.157602,-0.986604,-0.002923,0.001566,-0.030471,-7.094732,-24.147505,-35.661327,,,,,,
1481988827.23,0.043988,0.160572,-0.506368,-0.002810,0.005133,0.025871,0.043409,-0.159883,-0.986181,0.001071,-0.009978,-0.003885,-7.073637,-24.187843,-35.638180,,,,,,
1481988827.27,0.043843,0.160274,-0.505253,0.013468,-0.002242,0.016077,0.043268,-0.159589,-0.986235,-0.005258,0.003843,-0.021242,-7.064397,-24.215160,-35.621452,,,,,,
1481988827.32,0.043716,0.160609,-0.504404,-0.002753,-0.011803,0.021135,0.043140,-0.159920,-0.986187,-0.009693,0.005516,-0.002552,-7.087944,-24.218006,-35.614841,,,,,,
1481988827.37,0.042319,0.159726,-0.503707,-0.005139,-0.008068,-0.001723,0.041768,-0.159047,-0.986387,-0.010030,0.004216,-0.007281,-7.139291,-24.182632,-35.628620,,,,,,
1481988827.42,0.041631,0.158821,-0.503883,-0.016299,-0.013988,-0.012390,0.041095,-0.158154,-0.986559,0.000134,-0.000324,-0.025602,-7.172072,-24.149986,-35.644176,,,,,,
1481988827.47,0.041789,0.159077,-0.504225,0.003544,-0.020306,0.012673,0.041249,-0.158407,-0.986512,0.015971,-0.009394,-0.015640,-7.180711,-24.139919,-35.649258,,,,,,
1481988827.51,0.040993,0.158868,-0.503440,-0.000183,-0.016623,0.007886,0.040466,-0.158201,-0.986577,-0.000427,-0.000231,-0.012797,-7.199529,-24.147198,-35.640530,,,,,,
1481988827.56,0.040020,0.158553,-0.502685,0.007234,-0.003397,0.014955,0.039508,-0.157890,-0.986666,0.004148,-0.000893,-0.020094,-7.243729,-24.129707,-35.643421,,,,,,
1481988827.61,0.039667,0.159415,-0.502197,0.007317,0.000296,-0.003117,0.039154,-0.158741,-0.986544,0.000031,-0.001568,0.006624,-7.277617,-24.145185,-35.626030,,,,,,
1481988827.66,0.039298,0.158661,-0.502291,-0.002672,-0.000835,-0.000582,0.038795,-0.157997,-0.986677,0.001076,-0.004067,-0.024019,-7.292804,-24.122238,-35.638470,,,,,,
1481988827.71,0.039196,0.158794,-0.502269,-0.001389,-0.014156,-0.001740,0.038693,-0.158127,-0.986660,0.011921,-0.007095,-0.016956,-7.301413,-24.121403,-35.637268,,,,,,
1481988827.75,0.040097,0.159548,-0.501902,0.012184,0.014722,0.014810,0.039577,-0.158872,-0.986506,0.011266,-0.005129,-0.010443,-7.293258,-24.141857,-35.625092,,,,,,
1481988827.80,0.040453,0.159523,-0.501196,-0.005210,0.013713,0.001787,0.039928,-0.158847,-0.986495,-0.002987,-0.001676,-0.014328,-7.273227,-24.159365,-35.617313,,,,,,
1481988827.85,0.041160,0.159488,-0.501185,0.003569,0.005183,-0.004299,0.040626,-0.158813,-0.986472,-0.000663,0.002792,-0.013115,-7.256777,-24.144411,-35.630806,,,,,,
1481988827.90,0.042119,0.160979,-0.501598,0.028468,0.037665,-0.007163,0.041562,-0.160284,-0.986196,0.001041,-0.009271,0.010411,-7.242619,-24.140942,-35.636040,,,,,,
1481988827.95,0.043014,0.160005,-0.501529,-0.042566,-0.002888,-0.002492,0.042452,-0.159323,-0.986313,-0.008150,0.005835,-0.022354,-7.158800,-24.187469,-35.621422,,,,,,
1481988827.99,0.043269,0.159806,-0.501964,0.027225,0.029189,-0.005903,0.042704,-0.159126,-0.986334,-0.008616,-0.001060,-0.001444,-7.156750,-24.158585,-35.641430,,,,,,
1481988828.04,0.042741,0.159170,-0.502558,-0.023713,-0.001746,-0.031616,0.042188,-0.158499,-0.986457,-0.013272,0.002051,-0.001046,-7.144384,-24.150368,-35.649479,,,,,,
1481988828.09,0.042978,0.158263,-0.504451,-0.021149,0.009190,-0.049752,0.042428,-0.157603,-0.986591,-0.000115,-0.005254,-0.020917,-7.122465,-24.127445,-35.669380,,,,,,
1481988828.14,0.044295,0.158169,-0.507108,0.000008,0.011396,-0.040393,0.043728,-0.157511,-0.986549,0.019703,-0.016699,-0.015145,-7.090118,-24.118116,-35.682133,,,,,,
1481988828.19,0.045386,0.158883,-0.508119,-0.002595,-0.008055,-0.010180,0.044799,-0.158215,-0.986388,0.004761,-0.003604,-0.013765,-6.973959,-24.173555,-35.667507,,,,,,
1481988828.23,0.045394,0.159236,-0.508916,0.009830,0.009988,-0.008009,0.044804,-0.158564,-0.986332,0.004360,-0.006139,-0.010373,-6.968906,-24.185030,-35.660713,,,,,,
1481988828.28,0.046306,0.159254,-0.509324,-0.020088,0.000567,-0.007599,0.045704,-0.158582,-0.986287,-0.003819,0.003690,-0.011103,-6.913869,-24.211527,-35.653442,,,,,,
1481988828.33,0.045670,0.158222,-0.509998,0.001221,-0.005609,-0.025886,0.045084,-0.157563,-0.986479,-0.003671,0.001237,-0.023454,-6.918530,-24.179432,-35.674313,,,,,,
1481988828.38,0.046686,0.158280,-0.511528,-0.014962,-0.007861,-0.030494,0.046086,-0.157620,-0.986424,0.009593,-0.006763,-0.016704,-6.876266,-24.182587,-35.680347,,,,,,
1481988828.43,0.047502,0.158529,-0.512285,0.012311,0.011179,-0.005639,0.046888,-0.157866,-0.986347,0.010347,-0.009691,-0.011868,-6.838732,-24.186176,-35.685131,,,,,,
1481988828.47,0.048069,0.159400,-0.512242,0.001069,-0.006921,0.006619,0.047441,-0.158725,-0.986182,0.001417,-0.003796,-0.008782,-6.810855,-24.216427,-35.669941,,,,,,
1481988828.52,0.048214,0.159384,-0.511661,-0.011478,-0.004440,0.020002,0.047584,-0.158710,-0.986178,-0.002418,-0.000591,-0.010984,-6.797297,-24.233934,-35.660633,,,,,,
1481988828.57,0.047228,0.158420,-0.511097,0.023508,0.013480,-0.000972,0.046619,-0.157758,-0.986377,-0.004490,0.001905,-0.020597,-6.840667,-24.190365,-35.681915,,,,,,
1481988828.62,0.047421,0.159276,-0.511445,0.003645,-0.000829,-0.012698,0.046803,-0.158603,-0.986232,-0.001561,-0.003582,-0.009220,-6.834728,-24.216999,-35.664989,,,,,,
1481988828.67,0.048439,0.160918,-0.511407,0.030906,0.021840,0.013342,0.047795,-0.160225,-0.985923,-0.000462,-0.005593,0.011115,-6.806963,-24.269894,-35.634327,,,,,,
1481988828.71,0.047680,0.160835,-0.510404,-0.025191,-0.005534,0.018973,0.047047,-0.160143,-0.985972,-0.014454,0.000688,-0.008687,-6.817372,-24.277798,-35.626953,,,,,,
1481988828.76,0.045457,0.159238,-0.509792,0.007412,-0.006917,-0.016325,0.044867,-0.158566,-0.986328,-0.005484,0.005673,-0.023590,-6.927378,-24.218771,-35.645901,,,,,,
1481988828.81,0.044982,0.159575,-0.510522,0.003646,-0.019027,-0.006592,0.044396,-0.158899,-0.986296,0.007057,-0.008490,-0.001802,-6.933542,-24.217581,-35.645512,,,,,,
1481988828.86,0.045295,0.160971,-0.510694,-0.003979,0.001552,0.015070,0.044694,-0.160277,-0.986060,0.003387,-0.008470,-0.005258,-6.940857,-24.239836,-35.628956,,,,,,
1481988828.91,0.044988,0.160508,-0.509947,-0.015166,-0.014084,0.014076,0.044395,-0.159820,-0.986147,0.003396,0.000442,-0.019391,-6.947963,-24.255838,-35.616680,,,,,,
1481988828.95,0.043542,0.159753,-0.509047,-0.012603,-0.026184,0.005676,0.042974,-0.159075,-0.986331,-0.003850,-0.000532,-0.005155,-7.005208,-24.221737,-35.628674,,,,,,
1481988829.00,0.043210,0.159469,-0.508630,-0.007657,-0.011708,0.007955,0.042649,-0.158794,-0.986390,0.003082,-0.004612,-0.014739,-7.035430,-24.206406,-35.633137,,,,,,
1481988829.05,0.042233,0.159426,-0.508106,0.003582,0.002748,-0.000675,0.041686,-0.158751,-0.986438,-0.000807,-0.004060,-0.011212,-7.080749,-24.193691,-35.632793,,,,,,
1481988829.10,0.041812,0.159073,-0.507932,-0.000097,-0.011725,-0.006580,0.041272,-0.158403,-0.986512,-0.005933,-0.005721,-0.018280,-7.091543,-24.190235,-35.632996,,,,,,
1481988829.15,0.041626,0.160097,-0.508036,-0.010140,-0.012898,0.007992,0.041082,-0.159414,-0.986357,-0.002279,-0.006205,-0.005663,-7.093658,-24.198795,-35.626759,,,,,,
1481988829.19,0.041394,0.159982,-0.507889,0.001104,-0.009348,0.003023,0.040854,-0.159301,-0.986384,-0.001273,-0.008775,-0.012029,-7.115430,-24.213190,-35.612640,,,,,,
1481988829.24,0.040623,0.159762,-0.508121,-0.000049,-0.021397,-0.010146,0.040095,-0.159084,-0.986451,0.001089,-0.006139,-0.012954,-7.138449,-24.202072,-35.615585,,,,,,
1481988829.29,0.040554,0.159902,-0.508509,-0.012586,-0.015269,-0.000393,0.040026,-0.159221,-0.986431,0.007811,-0.001332,-0.013447,-7.133071,-24.221277,-35.603607,,,,,,
1481988829.34,0.040991,0.160312,-0.508547,0.039704,0.004820,0.009705,0.040454,-0.159626,-0.986348,0.005246,-0.001598,-0.004680,-7.131476,-24.223995,-35.602077,,,,,,
1481988829.39,0.040810,0.160823,-0.507836,-0.008905,-0.006848,0.007947,0.040272,-0.160131,-0.986274,-0.009770,0.007985,0.002235,-7.137634,-24.247696,-35.584702,,,,,,
1481988829.43,0.039301,0.158333,-0.507520,-0.012601,-0.003143,-0.004062,0.038799,-0.157673,-0.986729,-0.001537,0.003650,-0.016308,-7.171154,-24.201544,-35.609375,,,,,,
1481988829.48,0.039314,0.158000,-0.508082,-0.012626,-0.003160,0.000754,0.038814,-0.157343,-0.986781,0.014469,-0.006719,-0.011403,-7.184982,-24.152918,-35.639591,,,,,,
1481988829.53,0.040467,0.159395,-0.507967,-0.005205,-0.005694,0.016321,0.039943,-0.158720,-0.986515,0.004521,-0.009203,0.005085,-7.166568,-24.161428,-35.637527,,,,,,
1481988829.58,0.040190,0.159276,-0.506941,-0.016427,-0.015295,0.020115,0.039670,-0.158603,-0.986545,-0.000135,0.001148,-0.013806,-7.171343,-24.187410,-35.618938,,,,,,
1481988829.63,0.039427,0.158137,-0.506115,0.002284,-0.008183,0.016242,0.038925,-0.157478,-0.986755,0.001480,-0.005546,-0.013855,-7.215902,-24.130402,-35.648598,,,,,,
1481988829.67,0.038701,0.157845,-0.505125,-0.012666,-0.014100,0.015249,0.038210,-0.157190,-0.986829,-0.004641,-0.003973,-0.017459,-7.256939,-24.120525,-35.646950,,,,,,
1481988829.72,0.038145,0.158444,-0.504370,-0.016406,-0.012860,0.015290,0.037658,-0.157782,-0.986756,-0.001052,-0.007563,-0.008438,-7.287869,-24.124363,-35.638039,,,,,,
1481988829.77,0.037685,0.158092,-0.503677,0.008543,0.006321,0.006469,0.037207,-0.157435,-0.986828,0.007807,-0.006429,-0.020450,-7.319941,-24.115044,-35.637775,,,,,,
1481988829.82,0.036836,0.158385,-0.503537,-0.022531,-0.026069,-0.000221,0.036366,-0.157723,-0.986813,-0.000829,-0.002280,0.002225,-7.337315,-24.121750,-35.629662,,,,,,
1481988829.87,0.036225,0.157585,-0.503663,-0.006326,-0.006820,-0.006527,0.035769,-0.156934,-0.986961,0.001798,-0.000247,-0.023689,-7.376493,-24.104593,-35.633183,,,,,,
1481988829.91,0.036440,0.157576,-0.504629,0.006261,-0.010484,-0.027127,0.035980,-0.156924,-0.986955,0.009094,-0.007413,-0.003569,-7.369384,-24.089113,-35.645119,,,,,,
1481988829.96,0.036561,0.157409,-0.504897,-0.042563,-0.004117,0.005940,0.036101,-0.156760,-0.986977,0.001588,-0.002557,-0.001778,-7.340034,-24.108500,-35.638065,,,,,,
1481988830.01,0.037652,0.156735,-0.505496,0.021111,0.018410,-0.016612,0.037182,-0.156094,-0.987042,0.009785,0.001569,-0.006915,-7.314970,-24.080566,-35.662098,,,,,,
1481988830.06,0.037880,0.156228,-0.505760,-0.013792,-0.004301,-0.011265,0.037409,-0.155593,-0.987113,-0.004450,0.000213,-0.010004,-7.278422,-24.067966,-35.678078,,,,,,
1481988830.11,0.037629,0.155517,-0.506481,-0.008815,0.011407,-0.015009,0.037166,-0.154891,-0.987232,-0.003139,-0.004350,-0.011135,-7.279702,-24.045776,-35.692776,,,,,,
1481988830.15,0.038052,0.155204,-0.507812,0.001251,0.008954,-0.030769,0.037586,-0.154582,-0.987265,0.005688,-0.008306,-0.021707,-7.252454,-24.045803,-35.698307,,,,,,
1481988830.20,0.039639,0.156536,-0.509017,0.006179,0.006445,-0.016375,0.039144,-0.155897,-0.986997,0.007837,-0.008272,-0.011416,-7.198717,-24.071739,-35.691704,,,,,,
1481988830.25,0.040277,0.157180,-0.509323,0.011072,0.014822,-0.000826,0.039770,-0.156534,-0.986872,0.000544,-0.002387,-0.003882,-7.131174,-24.127552,-35.667564,,,,,,
1481988830.30,0.040434,0.156271,-0.509400,-0.005090,-0.004399,-0.004149,0.039931,-0.155636,-0.987007,-0.006804,0.003658,-0.005913,-7.107568,-24.106802,-35.686302,,,,,,
1481988830.35,0.040088,0.155233,-0.510220,-0.022409,-0.008991,-0.030396,0.039596,-0.154610,-0.987182,-0.001418,0.002007,-0.016343,-7.118935,-24.071507,-35.707859,,,,,,
1481988830.39,0.040788,0.155252,-0.511643,0.012449,0.014910,-0.027325,0.040287,-0.154629,-0.987151,0.008862,-0.010807,-0.018434,-7.086229,-24.064659,-35.718979,,,,,,
1481988830.44,0.042105,0.156095,-0.512432,-0.008873,0.004102,0.000671,0.041580,-0.155462,-0.986966,0.010315,-0.011210,-0.003100,-7.021035,-24.116388,-35.696957,,,,,,
1481988830.49,0.043061,0.156717,-0.512446,0.013531,0.020849,0.003928,0.042520,-0.156076,-0.986829,0.006339,-0.006201,-0.011095,-6.996885,-24.121748,-35.698078,,,,,,
1481988830.54,0.044209,0.157369,-0.512017,0.011051,0.020882,0.001551,0.043649,-0.156721,-0.986678,-0.003686,0.000944,-0.016374,-6.953720,-24.152107,-35.685982,,,,,,
1481988830.59,0.044974,0.157711,-0.512367,0.028595,0.015937,-0.013084,0.044401,-0.157058,-0.986591,-0.002683,-0.000458,-0.010312,-6.905119,-24.169962,-35.683331,,,,,,
1481988830.63,0.045653,0.158513,-0.512499,-0.021312,0.000603,-0.002772,0.045065,-0.157850,-0.986434,-0.005102,-0.003451,0.006744,-6.880444,-24.207489,-35.662651,,,,,,
1481988830.68,0.045955,0.158812,-0.512783,0.037237,0.012160,0.006086,0.045360,-0.158146,-0.986373,0.007405,-0.004452,-0.002701,-6.878663,-24.202589,-35.666317,,,,,,
1481988830.73,0.046797,0.159725,-0.512202,-0.035143,-0.005413,0.021498,0.046185,-0.159047,-0.986190,-0.009213,-0.000026,0.002349,-6.842139,-24.251308,-35.640244,,,,,,
1481988830.78,0.044711,0.157549,-0.511684,-0.005017,0.011423,-0.024687,0.044143,-0.156899,-0.986628,-0.012725,0.003243,-0.025488,-6.887614,-24.198843,-35.667133,,,,,,
1481988830.83,0.044821,0.157465,-0.512941,0.019938,0.029397,-0.034706,0.044252,-0.156815,-0.986636,0.001250,-0.007308,-0.013990,-6.923334,-24.155741,-35.689430,,,,,,
1481988830.87,0.046619,0.159417,-0.514025,-0.020016,-0.007869,-0.007562,0.046011,-0.158743,-0.986247,0.006189,-0.010371,-0.010487,-6.840586,-24.215542,-35.664852,,,,,,
1481988830.92,0.046749,0.159505,-0.513611,0.022209,0.021939,0.015854,0.046139,-0.158830,-0.986227,0.002201,-0.002730,-0.021524,-6.823819,-24.244247,-35.648560,,,,,,
1481988830.97,0.046591,0.160751,-0.513140,0.016073,0.005084,0.003973,0.045974,-0.160059,-0.986036,-0.004546,-0.003958,-0.008165,-6.829051,-24.280939,-35.622574,,,,,,
1481988831.02,0.046849,0.161539,-0.513000,0.003632,-0.000847,0.000542,0.046222,-0.160837,-0.985898,-0.006289,0.000010,0.004987,-6.831375,-24.313818,-35.599697,,,,,,
1481988831.07,0.045642,0.160335,-0.513000,-0.016268,-0.016398,-0.005158,0.045041,-0.159649,-0.986146,-0.008465,0.003948,-0.014663,-6.855002,-24.285402,-35.614548,,,,,,
1481988831.11,0.045377,0.160016,-0.513355,-0.005066,-0.000750,-0.007776,0.044782,-0.159334,-0.986208,0.002810,0.000231,-0.000120,-6.880182,-24.264961,-35.623619,,,,,,
1481988831.16,0.045609,0.159259,-0.513929,-0.018733,-0.005440,-0.014809,0.045016,-0.158586,-0.986318,0.007459,-0.010527,-0.003031,-6.875744,-24.240667,-35.641014,,,,,,
1481988831.21,0.046315,0.158349,-0.513724,-0.035103,0.012782,0.008175,0.045719,-0.157688,-0.986430,0.006939,-0.012402,-0.017934,-6.835155,-24.215008,-35.666256,,,,,,
1481988831.26,0.046242,0.157628,-0.513647,0.019895,0.017226,-0.016591,0.045653,-0.156976,-0.986547,0.000032,-0.004264,-0.011622,-6.841579,-24.173584,-35.693115,,,,,,
1481988831.31,0.046590,0.157297,-0.513603,-0.048789,-0.016177,0.014497,0.045998,-0.156649,-0.986583,0.005927,-0.011976,-0.015065,-6.820053,-24.179651,-35.693123,,,,,,
1481988831.35,0.046535,0.157286,-0.513400,0.038480,0.020609,0.006035,0.045944,-0.156638,-0.986587,0.001053,0.001639,-0.001710,-6.835787,-24.163288,-35.701195,,,,,,
1481988831.40,0.046587,0.157712,-0.513027,-0.018850,-0.017655,0.014138,0.045993,-0.157059,-0.986518,-0.003787,0.000504,-0.001504,-6.830882,-24.183796,-35.688244,,,,,,
1481988831.45,0.044990,0.156787,-0.512650,-0.010033,-0.001916,-0.008912,0.044424,-0.156145,-0.986735,-0.002843,-0.004988,-0.011663,-6.878456,-24.148331,-35.703117,,,,,,
1481988831.50,0.044630,0.156366,-0.513062,-0.001253,-0.018934,-0.011347,0.044071,-0.155729,-0.986816,0.000362,-0.005266,-0.023880,-6.891521,-24.136208,-35.708797,,,,,,
1481988831.55,0.045425,0.157480,-0.513462,-0.017573,-0.023716,0.012947,0.044848,-0.156830,-0.986607,0.004789,-0.006408,-0.004925,-6.870664,-24.170046,-35.689922,,,,,,
1481988831.59,0.045346,0.157478,-0.512942,0.012261,0.007472,0.019659,0.044769,-0.156828,-0.986611,0.001480,-0.007555,-0.014015,-6.880564,-24.169104,-35.688656,,,,,,
1481988831.64,0.044581,0.156839,-0.512212,-0.010068,-0.020132,0.006821,0.044019,-0.156197,-0.986745,0.000247,0.002709,-0.014079,-6.916262,-24.152000,-35.693333,,,,,,
1481988831.69,0.043978,0.156012,-0.512132,-0.007592,-0.006828,0.004321,0.043430,-0.155380,-0.986900,0.003170,-0.004441,-0.018380,-6.941833,-24.113680,-35.714272,,,,,,
1481988831.74,0.043972,0.155609,-0.511853,-0.020122,-0.028578,0.025038,0.043426,-0.154982,-0.986962,0.008545,-0.006914,-0.019828,-6.945500,-24.100096,-35.722729,,,,,,
1481988831.79,0.043845,0.155999,-0.510979,0.002235,0.005108,0.029421,0.043299,-0.155367,-0.986907,0.006063,-0.007155,-0.003891,-6.970127,-24.096582,-35.720299,,,,,,
1481988831.83,0.043403,0.156095,-0.509839,-0.001503,0.001506,0.030687,0.042862,-0.155462,-0.986912,0.001953,0.000036,-0.008511,-6.998268,-24.103535,-35.710106,,,,,,
1481988831.88,0.042473,0.155146,-0.508755,-0.011291,-0.029798,0.006880,0.041950,-0.154525,-0.987098,-0.010624,0.004012,-0.023278,-7.051583,-24.055376,-35.732082,,,,,,
1481988831.93,0.041834,0.155423,-0.508906,0.027362,0.011077,-0.008228,0.041318,-0.154798,-0.987082,0.003985,-0.007358,0.007376,-7.088980,-24.044468,-35.732029,,,,,,
1481988831.98,0.042588,0.155812,-0.508827,-0.022583,-0.003070,0.009301,0.042059,-0.155182,-0.986990,0.001657,-0.004547,-0.011408,-7.051616,-24.081772,-35.714294,,,,,,
1481988832.03,0.041836,0.155775,-0.508361,0.022269,-0.001078,0.018372,0.041317,-0.155146,-0.987027,0.005634,-0.006353,0.000195,-7.095764,-24.057751,-35.721737,,,,,,
1481988832.07,0.041703,0.156425,-0.506965,-0.015183,-0.010469,0.029706,0.041182,-0.155788,-0.986932,-0.008421,0.000438,0.003350,-7.096500,-24.092331,-35.698277,,,,,,
1481988832.12,0.039372,0.154122,-0.506198,-0.027431,-0.028394,-0.008575,0.038895,-0.153513,-0.987381,-0.003968,0.004587,-0.019806,-7.174138,-24.039742,-35.718212,,,,,,
1481988832.17,0.038497,0.153666,-0.506608,0.011190,-0.002091,-0.011578,0.038034,-0.153062,-0.987484,-0.000925,-0.005797,-0.019748,-7.237023,-23.972620,-35.750618,,,,,,
1481988832.22,0.039391,0.154694,-0.506975,-0.011341,-0.003155,0.006756,0.038911,-0.154078,-0.987292,0.009689,-0.007971,-0.013089,-7.214408,-24.014654,-35.726971,,,,,,
1481988832.27,0.039551,0.155141,-0.506202,-0.000192,0.002755,0.019832,0.039066,-0.154519,-0.987217,0.000210,-0.001731,-0.007686,-7.206964,-24.031902,-35.716873,,,,,,
1481988832.31,0.038434,0.154519,-0.505181,-0.018871,-0.010399,0.018919,0.037967,-0.153905,-0.987356,-0.008350,0.005849,-0.010447,-7.247345,-24.017057,-35.718685,,,,,,
1481988832.36,0.037875,0.153481,-0.505253,-0.027481,0.003100,-0.011130,0.037421,-0.152879,-0.987536,-0.003745,0.005678,-0.017194,-7.286602,-23.969034,-35.742950,,,,,,
1481988832.41,0.037822,0.153696,-0.506662,0.027487,0.011160,-0.031099,0.037367,-0.153092,-0.987505,0.006288,-0.013137,-0.005262,-7.287247,-23.945202,-35.758789,,,,,,
1481988832.46,0.038749,0.154462,-0.507648,-0.036277,-0.002934,0.005857,0.038278,-0.153849,-0.987353,0.013297,-0.018362,-0.000044,-7.207452,-24.039145,-35.711899,,,,,,
1481988832.51,0.038436,0.154468,-0.507555,0.007401,0.017301,-0.006807,0.037969,-0.153854,-0.987364,-0.003362,-0.000595,-0.012468,-7.222093,-24.009377,-35.728966,,,,,,
1481988832.55,0.039044,0.154135,-0.507894,-0.017450,-0.012723,-0.012381,0.038572,-0.153525,-0.987392,-0.005307,0.002219,-0.029164,-7.194472,-24.012701,-35.732300,,,,,,
1481988832.60,0.039356,0.155277,-0.509592,0.047479,0.010999,-0.036156,0.038873,-0.154654,-0.987204,0.009696,-0.011896,0.015356,-7.178978,-24.030380,-35.723534,,,,,,
1481988832.65,0.040449,0.155607,-0.510362,-0.016255,0.005417,-0.008870,0.039950,-0.154980,-0.987109,0.001813,-0.004703,-0.013730,-7.103699,-24.085640,-35.701363,,,,,,
1481988832.70,0.041531,0.156359,-0.511184,0.026095,0.029256,-0.008297,0.041013,-0.155723,-0.986949,0.003421,-0.001840,0.004787,-7.061886,-24.106573,-35.695526,,,,,,
1481988832.75,0.041668,0.155904,-0.511050,-0.019970,-0.000589,-0.011205,0.041151,-0.155273,-0.987014,-0.010236,0.002609,-0.016953,-7.040480,-24.118320,-35.691818,,,,,,
1481988832.79,0.041890,0.155781,-0.511644,-0.012480,0.001770,-0.013714,0.041371,-0.155152,-0.987024,-0.003529,-0.002029,-0.016013,-7.021854,-24.105133,-35.704395,,,,,,
1481988832.84,0.042137,0.156089,-0.512636,0.027398,0.022003,-0.015500,0.041612,-0.155456,-0.986966,0.010435,-0.008576,-0.015887,-7.025974,-24.099844,-35.707153,,,,,,
1481988832.89,0.042862,0.156689,-0.512872,-0.008773,-0.011627,-0.000457,0.042324,-0.156049,-0.986842,0.001896,-0.005893,-0.020177,-6.970429,-24.138844,-35.691696,,,,,,
1481988832.94,0.043803,0.157388,-0.512779,0.022290,0.014689,0.011077,0.043248,-0.156739,-0.986693,0.003520,0.001267,-0.003801,-6.940897,-24.162348,-35.681545,,,,,,
1481988832.99,0.043063,0.157290,-0.512416,0.003648,0.014898,-0.001935,0.042519,-0.156642,-0.986740,-0.001961,-0.002278,-0.006974,-6.970551,-24.156633,-35.679634,,,,,,
1481988833.03,0.042735,0.156866,-0.512331,-0.005077,0.008917,-0.000597,0.042197,-0.156223,-0.986820,-0.000800,0.003071,-0.002178,-6.987065,-24.144915,-35.684338,,,,,,
1481988833.08,0.042614,0.156919,-0.512379,0.011224,0.013680,-0.018873,0.042077,-0.156276,-0.986817,-0.005578,-0.004705,-0.006149,-6.977506,-24.137875,-35.690968,,,,,,
1481988833.13,0.043466,0.156551,-0.512848,-0.047457,-0.017368,0.006063,0.042921,-0.155912,-0.986838,0.012057,-0.007708,-0.006189,-6.948277,-24.164194,-35.678856,,,,,,
1481988833.18,0.043516,0.156661,-0.512332,0.024778,0.036474,0.004928,0.042969,-0.156021,-0.986819,-0.004517,-0.006958,-0.018217,-6.964186,-24.106733,-35.714611,,,,,,
1481988833.23,0.043259,0.156568,-0.512094,-0.015018,-0.012807,0.003239,0.042716,-0.155930,-0.986844,-0.007026,-0.002167,-0.008059,-6.967733,-24.134445,-35.695198,,,,,,
1481988833.28,0.043919,0.157225,-0.512340,0.011125,0.006327,0.005236,0.043363,-0.156578,-0.986713,0.003527,-0.004692,-0.012188,-6.950921,-24.148466,-35.688988,,,,,,
1481988833.32,0.044773,0.157994,-0.512721,0.032394,0.008612,-0.008275,0.044201,-0.157337,-0.986555,0.004078,-0.003017,-0.028566,-6.909326,-24.180655,-35.675270,,,,,,
1481988833.37,0.045781,0.159932,-0.512881,0.004825,0.011189,0.016122,0.045181,-0.159251,-0.986204,-0.001174,0.000011,0.008237,-6.867957,-24.253588,-35.633728,,,,,,
1481988833.42,0.045071,0.159277,-0.512296,0.011237,0.014893,-0.020082,0.044485,-0.158604,-0.986340,-0.020895,0.009022,-0.012943,-6.907761,-24.226906,-35.644180,,,,,,
1481988833.47,0.045308,0.158688,-0.514070,-0.003610,0.012683,-0.043962,0.044723,-0.158023,-0.986422,-0.006271,0.005405,-0.012159,-6.848742,-24.248976,-35.640564,,,,,,
1481988833.52,0.046151,0.158040,-0.516431,0.018824,0.005198,-0.038183,0.045560,-0.157383,-0.986486,0.018100,-0.009411,-0.036844,-6.795655,-24.214775,-35.673962,,,,,,
1481988833.56,0.047848,0.160499,-0.517617,0.013657,0.011178,-0.004446,0.047215,-0.159811,-0.986018,0.007396,-0.008143,-0.000371,-6.731236,-24.294754,-35.631771,,,,,,
1481988833.61,0.048693,0.161029,-0.517842,0.014867,0.009932,0.003970,0.048044,-0.160334,-0.985893,0.006781,-0.007894,-0.009606,-6.678181,-24.334259,-35.614792,,,,,,
1481988833.66,0.049296,0.161319,-0.518080,-0.026236,-0.001789,-0.001490,0.048636,-0.160620,-0.985817,0.002451,-0.002908,-0.006950,-6.655826,-24.350626,-35.607788,,,,,,
1481988833.71,0.049458,0.160919,-0.517943,0.004891,0.007595,0.005307,0.048799,-0.160226,-0.985873,0.002196,-0.010810,-0.019467,-6.648331,-24.333174,-35.621120,,,,,,
1481988833.76,0.050189,0.161192,-0.517648,-0.003772,-0.005614,-0.001748,0.049517,-0.160494,-0.985794,0.005506,-0.005796,-0.013397,-6.644691,-24.332296,-35.622398,,,,,,
1481988833.80,0.049244,0.160700,-0.516702,-0.005086,-0.021416,0.017601,0.048589,-0.160009,-0.985919,-0.005224,-0.004557,-0.010007,-6.642998,-24.330339,-35.624050,,,,,,
1481988833.85,0.048448,0.159667,-0.515934,-0.024999,-0.011509,0.004558,0.047813,-0.158989,-0.986122,-0.003685,0.000664,-0.018914,-6.689132,-24.305916,-35.632092,,,,,,
1481988833.90,0.047165,0.158365,-0.515606,0.001248,-0.011706,-0.006594,0.046558,-0.157703,-0.986388,-0.001392,-0.002804,-0.020127,-6.767643,-24.223869,-35.673111,,,,,,
1481988833.95,0.047415,0.159260,-0.515930,-0.017476,0.000572,-0.007625,0.046798,-0.158588,-0.986235,-0.000991,-0.006741,-0.006776,-6.753294,-24.251598,-35.656986,,,,,,
1481988834.00,0.047227,0.158503,-0.516021,0.012399,-0.007008,0.006487,0.046618,-0.157840,-0.986364,0.009183,-0.003186,-0.023631,-6.757187,-24.230560,-35.670547,,,,,,
1481988834.04,0.046341,0.158454,-0.515634,-0.009990,-0.010401,-0.004056,0.045745,-0.157792,-0.986412,-0.000655,0.001893,-0.007042,-6.794642,-24.235001,-35.660416,,,,,,
1481988834.09,0.045921,0.158295,-0.515119,-0.007594,-0.022618,0.020045,0.045331,-0.157635,-0.986457,0.001926,0.000469,-0.012918,-6.804568,-24.222437,-35.667061,,,,,,
1481988834.14,0.045090,0.157822,-0.515029,-0.013719,-0.015208,-0.003988,0.044515,-0.157168,-0.986568,0.003413,-0.006757,-0.016270,-6.845124,-24.203321,-35.672272,,,,,,
1481988834.19,0.045698,0.157554,-0.515134,-0.003849,0.013733,0.005384,0.045116,-0.156903,-0.986583,0.007817,-0.006717,-0.031285,-6.830994,-24.192722,-35.682175,,,,,,
1481988834.24,0.047213,0.159432,-0.514864,0.043489,0.003574,0.021703,0.046597,-0.158757,-0.986217,0.011676,-0.012675,-0.014973,-6.799848,-24.230234,-35.662663,,,,,,
1481988834.28,0.047270,0.161004,-0.513268,0.017160,0.010985,0.046063,0.046642,-0.160310,-0.985964,-0.001811,-0.002563,0.006014,-6.807078,-24.296368,-35.616261,,,,,,
1481988834.33,0.045677,0.160186,-0.511601,-0.016358,-0.010435,0.023706,0.045076,-0.159502,-0.986168,-0.009432,0.003847,-0.004066,-6.874273,-24.267281,-35.623184,,,,,,
1481988834.38,0.045388,0.159498,-0.511240,-0.015017,-0.016439,0.006865,0.044796,-0.158823,-0.986290,-0.002026,-0.001120,-0.006675,-6.909322,-24.230919,-35.641151,,,,,,
1481988834.43,0.044427,0.159020,-0.510536,-0.041235,-0.025926,0.016860,0.043852,-0.158351,-0.986409,0.001512,-0.006703,0.003743,-6.939476,-24.212902,-35.647537,,,,,,
1481988834.48,0.044102,0.157542,-0.509488,-0.032551,0.003062,0.014211,0.043542,-0.156891,-0.986656,-0.005486,-0.000549,-0.021065,-6.978535,-24.173044,-35.666954,,,,,,
1481988834.52,0.043676,0.156597,-0.509444,-0.000026,-0.015343,0.003066,0.043128,-0.155958,-0.986822,0.007012,-0.001055,-0.024134,-7.011392,-24.114468,-35.700150,,,,,,
1481988834.57,0.043831,0.157831,-0.509703,0.022351,0.019566,0.003833,0.043272,-0.157176,-0.986622,0.006243,-0.009923,0.001957,-6.998286,-24.151871,-35.677429,,,,,,
1481988834.62,0.043400,0.157047,-0.508901,-0.020043,-0.011577,0.014127,0.042852,-0.156402,-0.986763,-0.004141,0.000641,-0.027855,-7.010722,-24.134401,-35.686806,,,,,,
1481988834.67,0.043138,0.157320,-0.508488,0.029769,0.004901,0.021866,0.042592,-0.156672,-0.986732,-0.000844,-0.003515,-0.021493,-7.039515,-24.122795,-35.688988,,,,,,
1481988834.72,0.041035,0.156955,-0.507501,-0.013696,-0.028538,-0.001517,0.040519,-0.156312,-0.986876,-0.014701,0.005219,-0.011186,-7.060193,-24.139109,-35.673866,,,,,,
1481988834.76,0.040787,0.156890,-0.508103,0.000014,-0.001992,-0.011438,0.040275,-0.156247,-0.986897,0.002633,-0.000567,-0.016155,-7.144826,-24.105398,-35.679810,,,,,,
1481988834.81,0.040945,0.157366,-0.508833,0.016177,-0.000953,-0.000809,0.040428,-0.156717,-0.986816,0.016319,-0.010321,-0.004014,-7.147521,-24.103107,-35.680817,,,,,,
1481988834.86,0.041422,0.157751,-0.508566,-0.015093,0.000479,0.017621,0.040896,-0.157097,-0.986736,0.007520,-0.005638,-0.004292,-7.099421,-24.147079,-35.660683,,,,,,
1481988834.91,0.041333,0.156624,-0.508025,-0.025025,-0.009096,0.011768,0.040816,-0.155984,-0.986916,-0.000670,0.001871,-0.020317,-7.107685,-24.112785,-35.682240,,,,,,
1481988834.96,0.040708,0.155882,-0.507522,-0.001298,-0.006858,0.004244,0.040203,-0.155252,-0.987056,-0.001522,0.001916,-0.017445,-7.142388,-24.069027,-35.704845,,,,,,
1481988835.00,0.039862,0.155787,-0.507701,0.001238,-0.002004,-0.005438,0.039369,-0.155158,-0.987105,0.002928,-0.005762,-0.009798,-7.175784,-24.059338,-35.704678,,,,,,
1481988835.05,0.039942,0.156189,-0.507753,0.007425,0.006392,0.001669,0.039445,-0.155555,-0.987039,0.000945,-0.006265,-0.006689,-7.173361,-24.074110,-35.695206,,,,,,
1481988835.10,0.040565,0.156442,-0.507410,-0.007629,-0.009300,0.026000,0.040058,-0.155805,-0.986975,0.002758,-0.006076,-0.005502,-7.161583,-24.073656,-35.697876,,,,,,
1481988835.15,0.040136,0.155137,-0.506467,-0.023783,-0.006687,0.012945,0.039644,-0.154515,-0.987195,-0.002672,0.000493,-0.024448,-7.166217,-24.059166,-35.706715,,,,,,
1481988835.20,0.039278,0.155022,-0.506198,0.022447,0.012358,-0.011782,0.038797,-0.154402,-0.987246,-0.005670,0.001448,-0.011091,-7.211701,-24.027456,-35.718910,,,,,,
1481988835.24,0.039163,0.155250,-0.506600,-0.011234,0.004164,-0.006517,0.038682,-0.154627,-0.987215,-0.001359,-0.000356,-0.004743,-7.217213,-24.040308,-35.709148,,,,,,
1481988835.29,0.040203,0.155101,-0.507057,-0.011251,-0.028579,0.010486,0.039710,-0.154480,-0.987198,0.008310,-0.004425,-0.018341,-7.176367,-24.036785,-35.719749,,,,,,
1481988835.34,0.040038,0.154901,-0.507118,0.001196,0.019798,-0.004337,0.039548,-0.154282,-0.987235,0.001040,-0.005356,-0.006219,-7.178889,-24.030045,-35.723778,,,,,,
1481988835.39,0.039131,0.153518,-0.506435,-0.043704,-0.006482,0.005965,0.038661,-0.152916,-0.987483,-0.010433,0.001030,-0.018957,-7.178636,-24.016579,-35.732883,,,,,,
1481988835.44,0.038716,0.152861,-0.506922,0.010051,0.005248,-0.023634,0.038255,-0.152267,-0.987599,-0.001481,-0.003449,-0.025020,-7.221925,-23.954361,-35.765911,,,,,,
1481988835.48,0.038836,0.153399,-0.507469,0.001284,-0.004401,-0.011445,0.038371,-0.152798,-0.987512,0.003148,-0.006641,-0.012595,-7.214863,-23.971821,-35.755634,,,,,,
1481988835.53,0.039193,0.153901,-0.507553,-0.008769,-0.024976,0.012846,0.038719,-0.153294,-0.987422,0.007332,-0.004589,-0.017385,-7.189495,-24.000889,-35.741241,,,,,,
1481988835.58,0.038166,0.153978,-0.507118,0.002561,-0.016517,-0.011404,0.037705,-0.153370,-0.987449,-0.007813,0.004353,-0.004692,-7.224473,-24.005514,-35.731079,,,,,,
1481988835.63,0.038064,0.153793,-0.507676,0.013732,0.020933,-0.016531,0.037606,-0.153188,-0.987481,0.001395,-0.003551,-0.019004,-7.239970,-23.992704,-35.736546,,,,,,
1481988835.68,0.037607,0.153882,-0.508242,-0.012336,-0.034526,-0.017156,0.037153,-0.153275,-0.987485,0.001604,-0.002715,-0.011371,-7.237375,-24.004126,-35.729397,,,,,,
1481988835.72,0.038172,0.154443,-0.508671,-0.000059,-0.004454,0.009032,0.037709,-0.153830,-0.987378,0.011837,-0.007013,-0.008823,-7.225492,-24.012333,-35.726292,,,,,,
1481988835.77,0.037675,0.154299,-0.508628,-0.013673,-0.018811,-0.005177,0.037218,-0.153687,-0.987418,-0.003344,0.001695,-0.002053,-7.213842,-24.026760,-35.718945,,,,,,
1481988835.82,0.037775,0.153854,-0.508890,-0.021199,-0.004226,-0.002746,0.037320,-0.153247,-0.987483,0.003589,-0.001370,-0.013097,-7.221671,-24.012321,-35.727070,,,,,,
1481988835.87,0.037646,0.152827,-0.509961,0.007626,0.008957,-0.035659,0.037198,-0.152233,-0.987644,0.005725,-0.006291,-0.024273,-7.221128,-23.973867,-35.752995,,,,,,
1481988835.92,0.039095,0.153801,-0.511042,-0.001171,-0.027381,-0.006495,0.038623,-0.153195,-0.987441,0.011914,-0.009387,-0.018129,-7.131287,-24.024672,-35.736923,,,,,,
1481988835.96,0.039579,0.155314,-0.511268,0.048603,0.029085,-0.007369,0.039092,-0.154690,-0.987189,0.003358,-0.000903,0.003104,-7.128743,-24.067759,-35.708427,,,,,,
1481988836.01,0.039514,0.155162,-0.511241,-0.023675,0.000670,-0.008758,0.039030,-0.154541,-0.987215,-0.009382,0.007003,0.005404,-7.108129,-24.097723,-35.692326,,,,,,
1481988836.06,0.039547,0.153432,-0.512048,-0.006109,-0.018807,-0.022123,0.039072,-0.152830,-0.987480,0.000937,0.003294,-0.022911,-7.111354,-24.051800,-35.722649,,,,,,
1481988836.11,0.040086,0.153157,-0.513336,-0.023566,-0.017432,-0.023120,0.039606,-0.152559,-0.987500,0.007406,-0.003157,-0.003985,-7.074117,-24.022320,-35.749863,,,,,,
1481988836.16,0.040852,0.153016,-0.514040,-0.022461,0.003071,-0.002768,0.040363,-0.152420,-0.987491,0.008495,-0.010834,-0.020047,-7.031664,-24.013680,-35.764042,,,,,,
1481988836.20,0.041223,0.153123,-0.514393,0.019899,0.032975,-0.005833,0.040729,-0.152525,-0.987460,0.002469,-0.006731,-0.016339,-7.004782,-24.024797,-35.761852,,,,,,
1481988836.25,0.041481,0.153246,-0.514294,-0.019979,-0.029699,0.014206,0.040983,-0.152647,-0.987431,-0.000288,-0.003648,-0.014385,-6.980980,-24.034639,-35.759888,,,,,,
1481988836.30,0.041905,0.153844,-0.514085,0.009948,0.008832,-0.000784,0.041398,-0.153238,-0.987322,-0.000748,-0.001135,-0.007841,-6.981490,-24.049883,-35.749542,,,,,,
1481988836.35,0.041114,0.153618,-0.514304,0.001292,-0.003165,-0.010251,0.040618,-0.153015,-0.987389,-0.000854,-0.003250,-0.010231,-7.002071,-24.042366,-35.750572,,,,,,
1481988836.40,0.041802,0.154406,-0.514759,-0.013645,-0.021202,-0.007576,0.041293,-0.153793,-0.987240,-0.000171,-0.008042,-0.004032,-6.965135,-24.072670,-35.737392,,,,,,
1481988836.44,0.041290,0.153959,-0.514661,0.004944,0.004005,0.005320,0.040790,-0.153352,-0.987329,-0.004962,-0.002334,-0.022345,-6.976534,-24.060951,-35.743061,,,,,,
1481988836.49,0.040768,0.154109,-0.514929,-0.006213,-0.004339,-0.004133,0.040274,-0.153499,-0.987328,0.001138,-0.000889,-0.006843,-7.004838,-24.069265,-35.731926,,,,,,
1481988836.54,0.041616,0.154839,-0.515363,-0.023704,-0.002991,0.002092,0.041106,-0.154221,-0.987181,0.009385,-0.003006,0.009703,-6.984557,-24.094559,-35.718842,,,,,,
1481988836.59,0.041178,0.153386,-0.515464,0.015036,-0.003278,-0.012825,0.040683,-0.152785,-0.987422,-0.000125,-0.000886,-0.032583,-6.981010,-24.043747,-35.753761,,,,,,
1481988836.64,0.041371,0.154015,-0.515027,-0.022549,-0.006704,0.021354,0.040869,-0.153407,-0.987318,-0.000571,-0.003087,0.011106,-6.977124,-24.062038,-35.742210,,,,,,
1481988836.68,0.040637,0.151196,-0.514628,-0.044842,-0.011243,-0.008443,0.040162,-0.150621,-0.987775,-0.004701,0.000246,-0.018435,-7.002378,-24.003347,-35.776722,,,,,,
1481988836.73,0.040640,0.150070,-0.514838,0.002484,0.006474,-0.001883,0.040173,-0.149508,-0.987944,0.006367,-0.010328,-0.034822,-7.022107,-23.922249,-35.827141,,,,,,
1481988836.78,0.042123,0.151571,-0.514960,-0.007543,-0.001959,0.013925,0.041628,-0.150991,-0.987658,0.011412,-0.012339,0.001544,-6.970146,-23.961155,-35.811279,,,,,,
1481988836.83,0.041275,0.149978,-0.513329,-0.022594,-0.003100,0.029764,0.040800,-0.149417,-0.987932,-0.008863,0.003695,-0.024137,-6.985174,-23.930058,-35.829144,,,,,,
1481988836.88,0.039809,0.148609,-0.512488,-0.004967,-0.011628,-0.000503,0.039360,-0.148063,-0.988194,-0.008247,0.006217,-0.018947,-7.076603,-23.853573,-35.862186,,,,,,
1481988836.92,0.039119,0.147758,-0.512347,-0.036222,-0.018678,0.016763,0.038683,-0.147221,-0.988347,0.002546,-0.001384,-0.011470,-7.104464,-23.829758,-35.872509,,,,,,
1481988836.97,0.038204,0.146441,-0.512451,-0.013617,-0.013918,-0.016034,0.037786,-0.145918,-0.988575,0.000025,-0.001619,-0.014187,-7.134370,-23.777193,-35.901443,,,,,,
1481988837.02,0.039248,0.146420,-0.512930,0.007459,0.035524,-0.011709,0.038818,-0.145898,-0.988538,0.011429,-0.004371,-0.009830,-7.138584,-23.769539,-35.905674,,,,,,
1481988837.07,0.040849,0.145186,-0.513287,-0.047378,0.003311,-0.006074,0.040408,-0.144676,-0.988654,0.008542,-0.003654,-0.016855,-7.047319,-23.772762,-35.921566,,,,,,
1481988837.12,0.040917,0.144290,-0.513210,-0.009990,-0.005532,0.003139,0.040480,-0.143789,-0.988780,-0.001815,-0.002130,-0.029225,-7.019270,-23.717854,-35.963329,,,,,,
1481988837.16,0.040288,0.143580,-0.513590,0.024973,0.014794,-0.014234,0.039863,-0.143087,-0.988907,0.005974,-0.005381,-0.007233,-7.037252,-23.681181,-35.983974,,,,,,
1481988837.21,0.040481,0.143578,-0.513863,-0.027487,-0.004196,0.008163,0.040053,-0.143085,-0.988900,-0.001586,-0.001583,-0.010414,-7.018117,-23.690884,-35.981327,,,,,,
1481988837.26,0.039646,0.142050,-0.513917,0.001283,-0.006810,-0.009029,0.039236,-0.141573,-0.989150,0.007501,0.005388,-0.002504,-7.061535,-23.636385,-36.008659,,,,,,
1481988837.31,0.039307,0.141164,-0.514091,0.002481,-0.006851,0.000586,0.038906,-0.140696,-0.989288,0.010135,-0.001348,-0.011505,-7.080057,-23.600325,-36.028671,,,,,,
1481988837.36,0.040416,0.141510,-0.514370,-0.027433,-0.012627,-0.000225,0.040001,-0.141038,-0.989196,0.005257,-0.004775,-0.009629,-7.037024,-23.615562,-36.027122,,,,,,
1481988837.40,0.041207,0.141219,-0.514970,0.009925,0.022166,-0.002049,0.040785,-0.140750,-0.989205,0.016283,-0.013791,-0.023735,-7.021618,-23.584734,-36.050312,,,,,,
1481988837.45,0.042414,0.141925,-0.514320,0.001083,0.006407,0.027021,0.041975,-0.141449,-0.989055,-0.000196,-0.001145,-0.016880,-6.944975,-23.632824,-36.033657,,,,,,
1481988837.50,0.041944,0.141957,-0.513130,0.004839,-0.000892,0.027009,0.041510,-0.141481,-0.989070,-0.003409,0.001405,-0.012929,-6.972442,-23.627159,-36.032070,,,,,,
1481988837.55,0.041324,0.141608,-0.512242,0.002380,0.002792,0.017392,0.040899,-0.141135,-0.989145,-0.001318,0.001044,-0.002997,-7.018980,-23.611128,-36.033543,,,,,,
1481988837.60,0.040924,0.140961,-0.511534,-0.033771,-0.016274,0.021535,0.040506,-0.140495,-0.989252,0.000021,-0.001107,-0.021612,-7.041131,-23.583149,-36.047543,,,,,,
1481988837.64,0.040445,0.141067,-0.511182,0.012415,-0.002108,0.008867,0.040032,-0.140599,-0.989257,0.006965,-0.005702,-0.002183,-7.080525,-23.561562,-36.053940,,,,,,
1481988837.69,0.039737,0.140803,-0.510710,-0.000011,-0.009240,0.003034,0.039334,-0.140338,-0.989322,0.000537,-0.003888,-0.021802,-7.095403,-23.566471,-36.047806,,,,,,
1481988837.74,0.039762,0.141301,-0.510499,-0.013786,-0.009155,0.015239,0.039356,-0.140832,-0.989251,0.002987,-0.005165,-0.021369,-7.119944,-23.568760,-36.041470,,,,,,
1481988837.79,0.039687,0.141280,-0.509896,0.009916,0.001549,0.010084,0.039281,-0.140811,-0.989257,-0.000127,-0.004148,-0.026780,-7.120123,-23.562830,-36.045311,,,,,,
1481988837.84,0.039524,0.142816,-0.509727,0.018671,0.002699,0.006361,0.039111,-0.142331,-0.989046,0.001218,-0.006702,0.005236,-7.140564,-23.608282,-36.011513,,,,,,
1481988837.88,0.039680,0.142833,-0.509325,0.001209,-0.004421,0.009015,0.039266,-0.142348,-0.989038,-0.001165,0.000319,-0.024527,-7.129743,-23.626919,-36.001434,,,,,,
1481988837.93,0.039934,0.143855,-0.508679,0.003678,-0.040831,0.029616,0.039511,-0.143359,-0.988882,0.011164,-0.005246,-0.006281,-7.127662,-23.651596,-35.985638,,,,,,
1481988837.98,0.038442,0.143612,-0.507739,-0.026183,-0.008992,0.002149,0.038037,-0.143119,-0.988974,-0.014569,-0.000908,-0.004876,-7.176363,-23.640369,-35.983337,,,,,,
1481988838.03,0.037309,0.142919,-0.508155,0.007569,0.002879,-0.018780,0.036920,-0.142433,-0.989116,0.004645,-0.002586,-0.024221,-7.240120,-23.615040,-35.987194,,,,,,
1481988838.08,0.037276,0.143619,-0.509200,0.005042,-0.001968,-0.009098,0.036884,-0.143126,-0.989017,0.017407,-0.014223,-0.009396,-7.254180,-23.616064,-35.983692,,,,,,
1481988838.12,0.037985,0.144428,-0.508792,-0.024973,-0.009032,0.011764,0.037580,-0.143927,-0.988875,-0.001279,-0.001413,-0.011644,-7.199012,-23.672668,-35.957569,,,,,,
1481988838.17,0.037932,0.143722,-0.508554,0.001245,0.013795,-0.003108,0.037532,-0.143227,-0.988978,0.003514,-0.000327,-0.028783,-7.221446,-23.651644,-35.966908,,,,,,
1481988838.22,0.038215,0.144585,-0.508853,0.015034,0.010082,-0.014092,0.037807,-0.144082,-0.988843,-0.000606,-0.006553,-0.002368,-7.204398,-23.664358,-35.961960,,,,,,
1481988838.27,0.038270,0.144860,-0.509219,0.001285,0.004117,-0.005469,0.037860,-0.144354,-0.988802,-0.001163,-0.006525,-0.012251,-7.188294,-23.682915,-35.952965,,,,,,
1481988838.32,0.038542,0.145355,-0.509300,0.006263,0.012547,-0.006772,0.038126,-0.144844,-0.988720,-0.011072,0.001915,-0.009800,-7.166587,-23.711555,-35.938416,,,,,,
1481988838.36,0.038849,0.145576,-0.509910,-0.001124,-0.015207,-0.013774,0.038429,-0.145062,-0.988676,0.000573,-0.000827,-0.008165,-7.165840,-23.716938,-35.935017,,,,,,
1481988838.41,0.038332,0.144724,-0.510614,-0.009855,0.007911,-0.024608,0.037922,-0.144219,-0.988819,-0.003635,0.000375,-0.022290,-7.167723,-23.721773,-35.931446,,,,,,
1481988838.46,0.038848,0.144859,-0.512292,-0.004749,-0.016299,-0.036595,0.038432,-0.144353,-0.988780,0.008596,-0.004618,-0.014745,-7.129713,-23.712490,-35.945137,,,,,,
1481988838.51,0.041920,0.147300,-0.514048,0.034982,0.030522,-0.018044,0.041454,-0.146768,-0.988302,0.024861,-0.015464,0.002874,-7.018454,-23.786961,-35.917816,,,,,,
1481988838.56,0.043016,0.147681,-0.513587,0.016132,0.009976,0.017189,0.042534,-0.147144,-0.988200,0.001487,0.000874,-0.027120,-6.943280,-23.834496,-35.900909,,,,,,
1481988838.60,0.042792,0.148519,-0.513055,-0.002558,-0.006825,0.019904,0.042308,-0.147973,-0.988086,-0.008006,0.007318,0.007266,-6.950854,-23.859507,-35.882828,,,,,,
1481988838.65,0.041658,0.147096,-0.512689,-0.001147,-0.005510,-0.013821,0.041196,-0.146566,-0.988343,-0.016096,0.011129,-0.028122,-6.976591,-23.826691,-35.899635,,,,,,
1481988838.70,0.042075,0.147501,-0.514284,-0.003553,-0.026033,-0.022122,0.041606,-0.146967,-0.988266,0.009434,-0.006933,-0.012573,-6.999435,-23.803909,-35.910297,,,,,,
1481988838.75,0.042445,0.148141,-0.514819,-0.001244,-0.012845,0.009082,0.041967,-0.147599,-0.988156,0.012781,-0.006362,0.005262,-6.959383,-23.839668,-35.894356,,,,,,
1481988838.80,0.042677,0.147796,-0.514445,0.006187,0.011312,0.008877,0.042199,-0.147259,-0.988197,0.006003,-0.000080,-0.016563,-6.947500,-23.842134,-35.895023,,,,,,
1481988838.84,0.042297,0.147952,-0.513720,-0.011273,-0.022484,0.022489,0.041822,-0.147412,-0.988190,-0.000105,-0.000460,-0.005477,-6.958241,-23.843349,-35.892136,,,,,,
1481988838.89,0.040956,0.146852,-0.512842,-0.023703,-0.010219,0.008140,0.040504,-0.146325,-0.988407,-0.010292,0.002114,-0.017513,-7.016087,-23.802401,-35.908051,,,,,,
1481988838.94,0.041202,0.147279,-0.513251,0.008787,0.007724,-0.010396,0.040745,-0.146748,-0.988334,0.004528,-0.008450,-0.011528,-7.023596,-23.798080,-35.909443,,,,,,
1481988838.99,0.040985,0.148266,-0.513023,0.002489,-0.008036,0.010218,0.040524,-0.147723,-0.988198,-0.000149,-0.004453,-0.009177,-7.009399,-23.827919,-35.892426,,,,,,
1481988839.04,0.040288,0.147667,-0.512655,-0.007482,-0.015217,0.011577,0.039839,-0.147131,-0.988314,0.001131,-0.000987,-0.018140,-7.046052,-23.831646,-35.882774,,,,,,
1481988839.08,0.039547,0.148307,-0.512585,0.002546,0.012605,-0.009136,0.039103,-0.147764,-0.988249,-0.006494,-0.001772,0.005690,-7.075467,-23.826996,-35.880074,,,,,,
1481988839.13,0.039289,0.146798,-0.513435,-0.023485,-0.005237,-0.032807,0.038857,-0.146271,-0.988481,-0.002236,-0.003662,-0.025587,-7.075522,-23.800041,-35.897949,,,,,,
1481988839.18,0.040189,0.147424,-0.514920,-0.002288,0.000634,-0.033094,0.039743,-0.146890,-0.988354,0.004691,-0.003699,-0.011738,-7.031320,-23.819704,-35.893593,,,,,,
1481988839.23,0.039848,0.147036,-0.515998,-0.001073,-0.017587,-0.018580,0.039407,-0.146506,-0.988424,0.009955,-0.010033,-0.029169,-7.026287,-23.815792,-35.897175,,,,,,
1481988839.28,0.040519,0.148582,-0.516277,-0.008693,-0.020043,0.010412,0.040062,-0.148036,-0.988170,-0.006492,0.006892,-0.001744,-6.980603,-23.883821,-35.860870,,,,,,
1481988839.32,0.039765,0.147844,-0.516623,0.015118,0.005290,-0.022497,0.039321,-0.147306,-0.988309,-0.005263,0.003705,-0.018115,-6.998915,-23.867443,-35.868202,,,,,,
1481988839.37,0.040382,0.148128,-0.517897,0.002677,-0.007912,-0.023487,0.039929,-0.147587,-0.988243,0.002597,-0.003444,-0.010338,-6.985988,-23.869440,-35.869396,,,,,,
1481988839.42,0.040452,0.148419,-0.518910,-0.008613,0.000629,-0.013759,0.039996,-0.147874,-0.988197,0.004346,-0.007536,-0.005516,-6.951587,-23.888659,-35.863281,,,,,,
1481988839.47,0.040536,0.147491,-0.519463,0.008792,0.005291,-0.005569,0.040085,-0.146957,-0.988330,0.000275,0.002212,-0.024014,-6.927997,-23.877863,-35.875038,,,,,,
1481988839.52,0.041116,0.148232,-0.520027,-0.002422,-0.017638,0.001896,0.040653,-0.147690,-0.988198,0.004971,-0.001969,-0.006462,-6.898490,-23.900761,-35.865475,,,,,,
1481988839.56,0.040627,0.148174,-0.520131,-0.012435,-0.003025,0.003155,0.040171,-0.147633,-0.988226,0.002432,0.001423,-0.015268,-6.906387,-23.902973,-35.862480,,,,,,
1481988839.61,0.039751,0.147360,-0.519924,-0.009842,-0.023593,-0.007613,0.039310,-0.146828,-0.988381,-0.004459,0.000801,-0.018043,-6.930334,-23.878050,-35.874462,,,,,,
1481988839.66,0.039149,0.147611,-0.520343,-0.002393,-0.007925,-0.006574,0.038713,-0.147075,-0.988367,0.003538,-0.002247,-0.004553,-6.959239,-23.873829,-35.871677,,,,,,
1481988839.71,0.037994,0.147264,-0.520285,-0.018616,-0.025977,0.003339,0.037573,-0.146732,-0.988462,0.001352,-0.006374,-0.007418,-6.975594,-23.876434,-35.866764,,,,,,
1481988839.76,0.037198,0.147117,-0.519778,-0.016170,-0.010279,0.006848,0.036787,-0.146587,-0.988514,-0.007780,0.002666,-0.012494,-7.012422,-23.868141,-35.865101,,,,,,
1481988839.80,0.035826,0.145009,-0.520046,-0.024716,-0.029467,-0.021846,0.035443,-0.144502,-0.988870,0.001865,0.003678,-0.038459,-7.078138,-23.806978,-35.892834,,,,,,
1481988839.85,0.037180,0.146711,-0.520509,0.000061,0.001721,-0.000630,0.036772,-0.146186,-0.988573,0.003816,-0.006250,-0.011259,-7.025448,-23.844681,-35.878155,,,,,,
1481988839.90,0.037227,0.147013,-0.520488,0.023659,0.013570,0.014672,0.036817,-0.146484,-0.988528,0.016482,-0.010376,-0.013059,-7.053492,-23.843479,-35.873451,,,,,,
1481988839.95,0.038032,0.147795,-0.519302,-0.007626,0.013772,0.034313,0.037609,-0.147257,-0.988383,-0.017315,0.013194,-0.009832,-6.990412,-23.897640,-35.849751,,,,,,
1481988840.00,0.037617,0.146903,-0.518810,0.006278,0.014993,-0.003176,0.037203,-0.146376,-0.988529,-0.011812,0.010694,-0.017589,-7.025748,-23.866249,-35.863754,,,,,,
1481988840.04,0.037285,0.146379,-0.519646,0.001446,-0.000617,-0.028320,0.036878,-0.145857,-0.988618,0.005649,-0.004671,-0.001113,-7.037211,-23.838436,-35.879997,,,,,,
1481988840.09,0.037448,0.146691,-0.520258,-0.002476,0.005349,0.005403,0.037037,-0.146165,-0.988567,0.005917,-0.011611,-0.002431,-7.033366,-23.833466,-35.884060,,,,,,
1481988840.14,0.038201,0.146502,-0.519789,-0.019983,0.003050,0.016459,0.037782,-0.145979,-0.988566,-0.000673,-0.004702,-0.029714,-7.002412,-23.845890,-35.881859,,,,,,
1481988840.19,0.037916,0.146692,-0.519256,0.007542,-0.008048,0.004138,0.037500,-0.146166,-0.988549,-0.004343,0.000918,-0.014671,-7.009834,-23.845043,-35.880966,,,,,,
1481988840.24,0.037313,0.146301,-0.519317,0.008843,0.005321,-0.012792,0.036906,-0.145780,-0.988628,0.000920,-0.002734,-0.012897,-7.044330,-23.832611,-35.882473,,,,,,
1481988840.28,0.038028,0.146859,-0.519601,0.009979,0.013720,0.005210,0.037610,-0.146332,-0.988520,0.003390,-0.001267,-0.001439,-7.019063,-23.846018,-35.878517,,,,,,
1481988840.33,0.038936,0.146879,-0.519303,0.001219,-0.005615,0.018647,0.038507,-0.146352,-0.988483,0.001334,0.004537,-0.011548,-6.998187,-23.854235,-35.877132,,,,,,
1481988840.38,0.038999,0.146843,-0.518725,-0.007508,0.012653,0.010242,0.038570,-0.146316,-0.988486,-0.003154,-0.000657,-0.002939,-6.983729,-23.845848,-35.885521,,,,,,
1481988840.43,0.039245,0.146372,-0.518262,-0.028713,-0.012624,0.021453,0.038815,-0.145850,-0.988545,-0.003995,0.000296,-0.020824,-6.988087,-23.833704,-35.892742,,,,,,
1481988840.48,0.038626,0.146296,-0.517994,0.000076,-0.014022,0.003053,0.038204,-0.145774,-0.988580,0.000492,-0.006341,-0.003608,-7.015396,-23.806652,-35.905365,,,,,,
1481988840.52,0.038838,0.145655,-0.517399,-0.023709,-0.001745,0.015323,0.038417,-0.145140,-0.988665,-0.002238,0.001936,-0.032774,-7.020756,-23.798687,-35.909599,,,,,,
1481988840.57,0.038433,0.145848,-0.516887,0.018739,-0.005731,0.008803,0.038015,-0.145331,-0.988652,-0.000998,0.000449,-0.010142,-7.040213,-23.791166,-35.910770,,,,,,
1481988840.62,0.036792,0.145338,-0.515503,-0.024974,-0.012672,0.022613,0.036396,-0.144826,-0.988787,-0.022083,0.006780,-0.018766,-7.099345,-23.782307,-35.904999,,,,,,
1481988840.67,0.036780,0.145236,-0.515943,0.020085,0.024633,-0.023852,0.036385,-0.144726,-0.988803,0.000633,-0.000400,-0.016645,-7.141983,-23.753504,-35.915607,,,,,,
1481988840.72,0.036813,0.145499,-0.516746,-0.003515,-0.042983,-0.013619,0.036416,-0.144986,-0.988763,0.007087,-0.007037,-0.007880,-7.111448,-23.769295,-35.911224,,,,,,
1481988840.76,0.035820,0.145120,-0.516695,-0.012397,-0.024825,0.008070,0.035436,-0.144611,-0.988854,0.009272,-0.007199,-0.012962,-7.135918,-23.766411,-35.908276,,,,,,
1481988840.81,0.037237,0.146496,-0.516424,0.009945,0.010067,0.016059,0.036829,-0.145972,-0.988603,0.001058,-0.002038,0.005540,-7.099265,-23.804035,-35.890614,,,,,,
1481988840.86,0.037196,0.146035,-0.515523,-0.005007,-0.003128,0.018711,0.036792,-0.145517,-0.988671,-0.005771,-0.002356,-0.020697,-7.111551,-23.788223,-35.898666,,,,,,
1481988840.91,0.036288,0.145328,-0.514744,-0.006163,-0.007904,0.001896,0.035898,-0.144817,-0.988807,-0.003015,0.001018,-0.008752,-7.152198,-23.760612,-35.908875,,,,,,
1481988840.96,0.035785,0.144608,-0.514710,-0.019916,-0.010230,0.009298,0.035404,-0.144104,-0.988929,0.010677,-0.005096,-0.011147,-7.166615,-23.744448,-35.916687,,,,,,
1481988841.00,0.036109,0.144524,-0.514019,0.000034,0.016265,-0.000700,0.035724,-0.144021,-0.988930,-0.000141,0.000421,0.003181,-7.184914,-23.718111,-35.930435,,,,,,
1481988841.05,0.036135,0.143213,-0.513901,-0.051089,-0.006309,0.006050,0.035757,-0.142724,-0.989116,0.001673,-0.000495,-0.022221,-7.175403,-23.707037,-35.939640,,,,,,
1481988841.10,0.036158,0.142465,-0.513522,0.001264,0.008963,0.005338,0.035784,-0.141984,-0.989222,-0.004732,0.001603,-0.024313,-7.174370,-23.652941,-35.975471,,,,,,
1481988841.15,0.036705,0.143281,-0.514321,0.027489,0.020879,-0.005871,0.036321,-0.142791,-0.989086,0.015788,-0.012101,0.004726,-7.156456,-23.672848,-35.965946,,,,,,
1481988841.20,0.039020,0.144132,-0.513629,-0.007537,0.004150,0.022318,0.038605,-0.143634,-0.988878,0.000869,0.004230,-0.025420,-7.080032,-23.721409,-35.949070,,,,,,
1481988841.24,0.039020,0.144379,-0.512724,0.006191,0.012522,0.017296,0.038604,-0.143878,-0.988842,-0.005035,0.002734,-0.001560,-7.098865,-23.703556,-35.957134,,,,,,
1481988841.29,0.037545,0.142336,-0.511864,-0.037386,-0.001592,0.005860,0.037157,-0.141856,-0.989190,-0.009111,0.006114,-0.016456,-7.120762,-23.683878,-35.965767,,,,,,
1481988841.34,0.036942,0.141153,-0.512099,-0.007269,-0.006583,-0.028188,0.036566,-0.140685,-0.989379,-0.001562,-0.001970,-0.013337,-7.193281,-23.586142,-36.015530,,,,,,
1481988841.39,0.038879,0.142095,-0.513104,-0.021167,-0.004151,0.008079,0.038477,-0.141618,-0.989173,0.010076,-0.009322,-0.007729,-7.151848,-23.595232,-36.017826,,,,,,
1481988841.44,0.038609,0.141362,-0.512446,-0.002421,-0.015204,0.005494,0.038215,-0.140892,-0.989287,-0.007377,-0.000465,-0.018586,-7.112110,-23.594774,-36.025993,,,,,,
1481988841.48,0.037641,0.140492,-0.512884,-0.014839,-0.027176,-0.000317,0.037262,-0.140031,-0.989446,0.005737,-0.004272,-0.023906,-7.146801,-23.567677,-36.036861,,,,,,
1481988841.53,0.037878,0.140759,-0.513317,-0.008566,-0.017502,-0.011272,0.037494,-0.140295,-0.989400,0.003110,-0.001765,-0.001781,-7.123690,-23.581085,-36.032669,,,,,,
1481988841.58,0.038129,0.140093,-0.514042,-0.003574,0.000648,-0.018640,0.037746,-0.139636,-0.989483,0.008488,-0.005231,-0.005161,-7.122127,-23.553288,-36.051155,,,,,,
1481988841.63,0.038802,0.139706,-0.514496,-0.022401,0.012859,-0.000413,0.038414,-0.139252,-0.989512,0.013893,-0.008178,-0.015264,-7.074519,-23.568537,-36.050560,,,,,,
1481988841.68,0.039222,0.139951,-0.514228,0.006290,0.004121,0.002888,0.038829,-0.139495,-0.989461,0.000630,-0.005677,-0.010340,-7.063132,-23.545435,-36.067886,,,,,,
1481988841.72,0.039763,0.140089,-0.513762,0.000033,0.019926,0.000483,0.039363,-0.139631,-0.989421,-0.012416,0.008008,-0.022344,-7.054976,-23.562485,-36.058346,,,,,,
1481988841.77,0.039132,0.139122,-0.514808,0.010275,-0.003010,-0.044072,0.038744,-0.138673,-0.989580,0.009154,0.002916,-0.014860,-7.073012,-23.538271,-36.070625,,,,,,
1481988841.82,0.039876,0.140026,-0.516050,0.003842,0.004181,-0.009120,0.039475,-0.139569,-0.989425,0.010864,-0.004657,0.000915,-7.004907,-23.575493,-36.059605,,,,,,
1481988841.87,0.041231,0.139910,-0.516647,0.031309,0.033072,-0.027647,0.040817,-0.139454,-0.989387,0.008683,-0.000911,-0.006249,-6.970532,-23.569555,-36.070148,,,,,,
1481988841.92,0.042432,0.140540,-0.517062,-0.023698,-0.007754,0.014141,0.042001,-0.140078,-0.989249,0.011283,-0.005918,-0.001977,-6.889496,-23.608475,-36.060265,,,,,,
1481988841.96,0.041378,0.138702,-0.516654,0.007533,0.023526,-0.010461,0.040968,-0.138258,-0.989549,-0.002318,0.004179,-0.015609,-6.926132,-23.556778,-36.087040,,,,,,
1481988842.01,0.041458,0.138285,-0.517577,-0.003602,-0.011473,-0.013773,0.041050,-0.137845,-0.989603,0.006145,-0.010455,-0.034094,-6.915574,-23.529808,-36.106659,,,,,,
1481988842.06,0.044229,0.141426,-0.518265,0.007485,0.002889,0.011302,0.043774,-0.140955,-0.989048,0.014362,-0.014807,-0.000744,-6.872322,-23.575043,-36.085403,,,,,,
1481988842.11,0.044930,0.142453,-0.517367,0.013631,0.012470,0.025627,0.044460,-0.141972,-0.988872,0.004719,-0.004162,-0.004063,-6.798253,-23.672554,-36.035561,,,,,,
1481988842.16,0.044060,0.141635,-0.516148,0.001301,-0.009146,0.005416,0.043605,-0.141162,-0.989026,-0.004833,0.003482,-0.012958,-6.839635,-23.643982,-36.046486,,,,,,
1481988842.20,0.044332,0.141801,-0.515829,0.001248,0.006578,0.008955,0.043872,-0.141327,-0.988990,-0.006748,0.001526,-0.013237,-6.848224,-23.638248,-36.048615,,,,,,
1481988842.25,0.043712,0.142434,-0.515953,-0.006140,-0.012698,-0.000493,0.043256,-0.141953,-0.988928,0.002871,-0.007705,-0.000803,-6.871116,-23.650276,-36.036369,,,,,,
1481988842.30,0.043391,0.142206,-0.515618,0.007536,0.000487,0.002889,0.042940,-0.141727,-0.988974,-0.000597,-0.003781,-0.016229,-6.879210,-23.650616,-36.034603,,,,,,
1481988842.35,0.043226,0.143014,-0.515541,0.028730,0.022110,-0.003489,0.042771,-0.142527,-0.988866,-0.002518,-0.006048,-0.013407,-6.890003,-23.655926,-36.029057,,,,,,
1481988842.40,0.043450,0.143918,-0.515796,-0.002316,-0.021172,-0.011332,0.042987,-0.143421,-0.988728,0.004986,-0.002910,-0.001980,-6.886327,-23.707441,-35.995884,,,,,,
1481988842.44,0.043998,0.144224,-0.515790,0.033704,0.024482,-0.001154,0.043528,-0.143724,-0.988660,-0.005625,0.001726,-0.010638,-6.857695,-23.723021,-35.991085,,,,,,
1481988842.49,0.044354,0.144493,-0.515837,-0.042293,-0.000248,-0.007329,0.043878,-0.143991,-0.988606,-0.005578,0.005838,-0.006725,-6.850831,-23.742111,-35.979797,,,,,,
1481988842.54,0.044170,0.144666,-0.516252,0.037480,0.008709,-0.001126,0.043694,-0.144162,-0.988589,0.005622,-0.007022,-0.001172,-6.860686,-23.724995,-35.989212,,,,,,
1481988842.59,0.044090,0.144921,-0.515806,-0.024873,-0.012557,0.006958,0.043614,-0.144414,-0.988556,-0.009068,-0.006876,-0.004608,-6.857164,-23.754295,-35.970551,,,,,,
1481988842.64,0.043168,0.143983,-0.515853,0.003872,0.010259,-0.015164,0.042708,-0.143486,-0.988730,-0.005095,0.001702,-0.027536,-6.876526,-23.729670,-35.983105,,,,,,
1481988842.68,0.043271,0.144515,-0.517144,0.038826,0.022096,-0.026480,0.042806,-0.144012,-0.988650,0.011042,-0.005387,-0.007765,-6.885092,-23.720631,-35.987427,,,,,,
1481988842.73,0.044498,0.145407,-0.517212,-0.014921,-0.006604,0.008013,0.044013,-0.144895,-0.988468,-0.006568,0.003400,-0.004651,-6.810056,-23.786825,-35.958000,,,,,,
1481988842.78,0.043779,0.144646,-0.517555,-0.016054,-0.008939,-0.013627,0.043308,-0.144142,-0.988609,-0.001240,0.000832,-0.005776,-6.839366,-23.756632,-35.972393,,,,,,
1481988842.83,0.043812,0.144452,-0.517968,-0.009874,-0.010244,-0.000457,0.043342,-0.143950,-0.988635,0.009621,-0.009050,-0.017377,-6.843563,-23.741842,-35.981365,,,,,,
1481988842.88,0.043944,0.144648,-0.517460,0.021163,0.022115,0.014659,0.043471,-0.144144,-0.988601,0.002122,-0.006018,-0.023041,-6.837536,-23.749798,-35.977257,,,,,,
1481988842.92,0.043513,0.144995,-0.516868,0.008769,-0.005608,0.011329,0.043043,-0.144487,-0.988570,0.003466,-0.001112,-0.005342,-6.864955,-23.758730,-35.966133,,,,,,
1481988842.97,0.043741,0.145309,-0.516282,0.017469,0.006420,0.012370,0.043267,-0.144798,-0.988515,-0.000389,0.007988,-0.005122,-6.859756,-23.762827,-35.964420,,,,,,
1481988843.02,0.042585,0.143948,-0.515766,-0.028616,0.008081,-0.002720,0.042132,-0.143452,-0.988760,-0.008883,0.005436,0.004019,-6.886140,-23.752625,-35.966118,,,,,,
1481988843.07,0.042808,0.141690,-0.516098,-0.052289,0.018009,-0.012105,0.042366,-0.141216,-0.989072,0.001641,-0.002872,-0.012210,-6.911393,-23.672750,-36.013905,,,,,,
1481988843.12,0.043981,0.141487,-0.516941,0.007583,0.016265,-0.009220,0.043527,-0.141016,-0.989050,0.013480,-0.019797,-0.022669,-6.865293,-23.607889,-36.065262,,,,,,
1481988843.16,0.043999,0.142287,-0.516287,-0.006175,-0.049119,0.027364,0.043540,-0.141807,-0.988936,0.005700,-0.009163,-0.019776,-6.839297,-23.661514,-36.035046,,,,,,
1481988843.21,0.043726,0.142965,-0.514779,0.011122,0.000328,0.037753,0.043266,-0.142478,-0.988852,-0.005974,0.007484,0.000433,-6.875309,-23.682272,-36.014549,,,,,,
1481988843.26,0.042364,0.142702,-0.513777,0.002642,-0.018818,-0.004182,0.041920,-0.142218,-0.988947,-0.015141,0.010398,-0.003133,-6.954295,-23.652502,-36.018948,,,,,,
1481988843.31,0.041832,0.141383,-0.514464,-0.022259,-0.007653,-0.018373,0.041403,-0.140912,-0.989156,-0.000143,-0.001666,-0.025645,-6.967838,-23.637150,-36.026405,,,,,,
1481988843.36,0.041910,0.141256,-0.515107,-0.011173,-0.011489,0.010397,0.041480,-0.140787,-0.989171,0.017846,-0.014548,-0.007533,-6.946555,-23.614002,-36.045696,,,,,,
1481988843.40,0.041630,0.141604,-0.514403,-0.004936,-0.020031,0.016379,0.041201,-0.141131,-0.989133,0.006040,-0.005445,-0.006503,-6.955020,-23.613800,-36.044193,,,,,,
1481988843.45,0.041676,0.141357,-0.513277,-0.005001,-0.000673,0.021103,0.041249,-0.140886,-0.989166,-0.008885,0.004778,-0.028061,-6.987165,-23.602665,-36.045273,,,,,,
1481988843.50,0.041674,0.141401,-0.512922,0.001304,-0.007953,0.009023,0.041247,-0.140931,-0.989160,-0.000979,0.002015,-0.001502,-6.992035,-23.603233,-36.043953,,,,,,
1481988843.55,0.040964,0.140641,-0.512832,0.006332,0.005368,-0.004341,0.040548,-0.140178,-0.989296,-0.001287,0.002483,-0.009987,-7.024629,-23.570242,-36.059200,,,,,,
1481988843.60,0.042334,0.141448,-0.513108,-0.023652,0.011661,0.004422,0.041898,-0.140976,-0.989126,0.001925,-0.004791,-0.005747,-6.973986,-23.601254,-36.048748,,,,,,
1481988843.64,0.041981,0.140604,-0.512713,-0.009923,0.003054,0.006702,0.041555,-0.140141,-0.989259,-0.001699,-0.002392,-0.012496,-6.983584,-23.578049,-36.062069,,,,,,
1481988843.69,0.041234,0.139719,-0.512047,-0.018605,0.005583,-0.004035,0.040821,-0.139265,-0.989413,-0.004215,-0.002734,-0.035703,-6.995616,-23.562227,-36.070080,,,,,,
1481988843.74,0.041014,0.140149,-0.512211,0.007640,-0.006742,-0.009113,0.040601,-0.139690,-0.989363,0.003512,-0.000080,-0.019289,-7.038194,-23.538420,-36.077339,,,,,,
1481988843.79,0.041044,0.141730,-0.512613,-0.002443,0.009032,0.007788,0.040621,-0.141256,-0.989139,0.005552,-0.008875,0.008014,-7.036068,-23.593004,-36.042084,,,,,,
1481988843.84,0.041120,0.141484,-0.512133,-0.014866,-0.000521,0.003169,0.040697,-0.141013,-0.989171,0.000959,0.001547,-0.025386,-7.030497,-23.598846,-36.039345,,,,,,
1481988843.88,0.040568,0.141406,-0.511763,0.007557,0.004109,0.005281,0.040152,-0.140935,-0.989204,-0.003531,0.002111,-0.005608,-7.051227,-23.593443,-36.038834,,,,,,
1481988843.93,0.039654,0.140784,-0.511700,-0.019779,-0.004064,-0.011197,0.039251,-0.140319,-0.989328,-0.013235,0.000075,-0.005972,-7.091703,-23.570560,-36.045864,,,,,,
1481988843.98,0.039582,0.140557,-0.512543,-0.003517,-0.013875,-0.014962,0.039182,-0.140095,-0.989362,0.008868,-0.011348,-0.022539,-7.091965,-23.555298,-36.055786,,,,,,
1481988844.03,0.039386,0.140753,-0.512864,0.008798,0.004094,0.008876,0.038986,-0.140289,-0.989343,0.015854,-0.011551,-0.017173,-7.071699,-23.578465,-36.044621,,,,,,
1481988844.08,0.039900,0.141001,-0.512158,-0.022434,-0.017484,0.028616,0.039493,-0.140534,-0.989288,-0.004429,0.006089,-0.005509,-7.058996,-23.595596,-36.035900,,,,,,
1481988844.12,0.039597,0.140334,-0.511606,0.006416,0.004202,-0.012763,0.039197,-0.139874,-0.989393,-0.023450,0.002530,-0.016695,-7.096846,-23.548601,-36.059196,,,,,,
1481988844.17,0.038109,0.138795,-0.512805,-0.032131,-0.019626,-0.027826,0.037734,-0.138350,-0.989664,0.000551,-0.002230,-0.032018,-7.123281,-23.514309,-36.076363,,,,,,
1481988844.22,0.038099,0.139208,-0.514646,0.037755,0.008882,-0.048073,0.037722,-0.138759,-0.989608,0.002638,-0.005727,-0.018052,-7.099590,-23.526516,-36.073071,,,,,,
1481988844.27,0.039977,0.140977,-0.516359,0.008873,-0.000686,-0.003142,0.039569,-0.140511,-0.989288,0.010189,-0.009742,-0.005387,-7.011862,-23.596531,-36.044491,,,,,,
1481988844.32,0.040049,0.141233,-0.516803,-0.010957,-0.016183,-0.020882,0.039640,-0.140764,-0.989249,-0.017942,0.009066,-0.004312,-6.987525,-23.624615,-36.030815,,,,,,
1481988844.36,0.039137,0.138914,-0.518637,0.012805,0.000633,-0.045325,0.038750,-0.138468,-0.989609,0.005913,0.004465,-0.026154,-6.997941,-23.583246,-36.055889,,,,,,
1481988844.41,0.039178,0.139526,-0.520613,-0.004619,-0.037982,-0.036506,0.038787,-0.139074,-0.989522,0.002488,0.000387,0.009450,-6.941285,-23.596199,-36.058365,,,,,,
1481988844.46,0.039113,0.139663,-0.521562,-0.007364,-0.016301,0.004350,0.038722,-0.139209,-0.989506,0.006657,0.000171,0.003010,-6.937197,-23.610325,-36.049908,,,,,,
1481988844.51,0.038041,0.138076,-0.521200,-0.037254,-0.037826,0.004816,0.037670,-0.137638,-0.989766,0.001332,0.008365,-0.022273,-6.965027,-23.556992,-36.079418,,,,,,
1481988844.56,0.037547,0.136085,-0.521699,-0.028468,-0.024504,-0.013411,0.037191,-0.135665,-0.990056,0.012262,-0.003022,-0.007029,-6.997516,-23.483871,-36.120773,,,,,,
1481988844.60,0.038807,0.135529,-0.523048,-0.013510,0.038415,-0.037963,0.038441,-0.135115,-0.990084,0.007305,-0.008501,0.000857,-6.921196,-23.474854,-36.141331,,,,,,
1481988844.65,0.040850,0.136147,-0.524232,-0.023611,0.042039,-0.011371,0.040461,-0.135726,-0.989920,-0.007548,-0.010239,-0.013803,-6.843487,-23.482861,-36.150928,,,,,,
