timestamp(unix),attitude_roll(radians),attitude_pitch(radians),attitude_yaw(radians),rotation_rate_x(radians/s),rotation_rate_y(radians/s),rotation_rate_z(radians/s),gravity_x(G),gravity_y(G),gravity_z(G),user_acc_x(G),user_acc_y(G),user_acc_z(G),magnetic_field_x(microteslas),magnetic_field_y(microteslas),magnetic_field_z(microteslas),latitude(degree),longitude(degree),altitude(meter),speed(m/s),course(degree),timestamp(unix)
1482007117.15,0.022535,0.149602,-0.036640,0.025972,0.029488,0.014394,0.022281,-0.149045,-0.988579,-0.003162,-0.008899,-0.045417,23.308435,3.505968,-38.843266,,,,,,
,,,,,,,,,,,,,,,,48.210426,16.374546,178.995361,-1.000000,-1.000000,1482007117.13
1482007117.20,0.021880,0.149944,-0.036153,0.042213,0.018446,0.015451,0.021633,-0.149383,-0.988543,-0.003170,-0.001069,-0.035841,23.300117,3.480404,-38.850552,,,,,,
,,,,,,,,,,,,,,,,48.210426,16.374546,178.995361,-1.000000,-1.000000,1482007109.45
,,,,,,,,,,,,,,,,48.210426,16.374546,178.995361,-1.000000,-1.000000,1482007117.17
,,,,,,,,,,,,,,,,48.210426,16.374546,178.995361,-1.000000,-1.000000,1482007117.17
1482007117.25,0.022273,0.151612,-0.036394,0.028624,0.021086,-0.010876,0.022015,-0.151032,-0.988284,-0.004025,-0.006606,-0.012250,23.309982,3.411581,-38.850739,,,,,,
1482007117.30,0.021634,0.152860,-0.037392,0.000273,-0.054823,-0.041468,0.021380,-0.152265,-0.988108,-0.011324,-0.005877,-0.005513,23.327732,3.385512,-38.842365,,,,,,
1482007117.35,0.019983,0.152618,-0.039557,0.020240,0.009250,-0.072100,0.019750,-0.152026,-0.988179,-0.015904,0.005832,-0.025554,23.246460,3.410061,-38.888916,,,,,,
1482007117.39,0.017404,0.151801,-0.044020,0.016800,-0.018420,-0.124883,0.017203,-0.151218,-0.988351,-0.024054,0.010120,-0.007346,23.134897,3.489914,-38.948311,,,,,,
1482007117.44,0.014926,0.151145,-0.050952,0.024500,0.001040,-0.178025,0.014756,-0.150570,-0.988489,-0.022431,0.012875,-0.010397,22.950321,3.684843,-39.039452,,,,,,
1482007117.49,0.015409,0.151862,-0.060116,0.003412,-0.030215,-0.187250,0.015231,-0.151279,-0.988374,-0.001559,0.001956,-0.013076,22.846060,3.875691,-39.082104,,,,,,
1482007117.54,0.015449,0.152143,-0.068770,0.012084,-0.031534,-0.174112,0.015270,-0.151557,-0.988331,0.008518,-0.006006,-0.016415,22.746565,4.065618,-39.120819,,,,,,
1482007117.59,0.014192,0.152389,-0.078336,0.007308,-0.071346,-0.197942,0.014027,-0.151800,-0.988312,-0.000340,-0.007670,-0.019333,22.635757,4.250814,-39.165382,,,,,,
1482007117.63,0.008895,0.151762,-0.087764,-0.003858,-0.070059,-0.208635,0.008793,-0.151180,-0.988467,-0.029804,-0.002552,-0.001599,22.509880,4.410313,-39.220257,,,,,,
1482007117.68,0.004407,0.150569,-0.099954,-0.028398,-0.079306,-0.285318,0.004357,-0.150000,-0.988676,-0.011651,-0.001916,-0.006075,22.154816,4.651661,-39.394169,,,,,,
,,,,,,,,,,,,,,,,48.210426,16.374546,178.995361,-1.000000,-1.000000,1482007117.47
1482007117.73,0.001049,0.150549,-0.114956,-0.030556,-0.094853,-0.341787,0.001037,-0.149981,-0.988688,-0.017120,-0.007490,-0.001409,21.883362,4.979713,-39.505630,,,,,,
,,,,,,,,,,,,,,,,48.210426,16.374546,178.995361,-1.000000,-1.000000,1482007117.68
1482007117.78,-0.001097,0.149831,-0.132134,0.026826,-0.055350,-0.361930,-0.001085,-0.149271,-0.988796,0.003023,0.003595,-0.017308,21.457767,5.481004,-39.672371,,,,,,
1482007117.83,0.000031,0.152219,-0.149821,-0.018002,-0.065823,-0.361339,0.000030,-0.151632,-0.988437,0.012390,-0.019068,0.022327,21.278011,5.784132,-39.726112,,,,,,
1482007117.87,0.001069,0.150524,-0.167003,-0.092859,-0.079724,-0.345918,0.001057,-0.149957,-0.988692,0.022793,-0.013816,0.018157,21.140455,6.141917,-39.745842,,,,,,
1482007117.92,-0.003563,0.145116,-0.181730,-0.116744,-0.170592,-0.271777,-0.003525,-0.144607,-0.989483,-0.006286,-0.011094,0.004787,20.813959,6.669674,-39.833012,,,,,,
1482007117.97,-0.011003,0.138353,-0.195659,-0.135204,-0.172692,-0.319684,-0.010898,-0.137912,-0.990385,-0.002225,0.012866,-0.018542,20.492607,7.016465,-39.939911,,,,,,
1482007118.02,-0.014447,0.132156,-0.212369,-0.132863,-0.066115,-0.334655,-0.014321,-0.131771,-0.991177,0.052696,-0.008777,-0.006626,20.063805,7.597778,-40.051113,,,,,,
1482007118.07,-0.010214,0.126753,-0.227928,-0.120708,0.009993,-0.302672,-0.010132,-0.126414,-0.991926,0.046768,-0.008123,-0.038821,19.880392,8.336941,-39.995495,,,,,,
1482007118.11,-0.008262,0.123679,-0.242339,-0.019753,0.000552,-0.284604,-0.008199,-0.123364,-0.992328,0.042317,-0.007999,-0.045789,19.764236,8.792179,-39.955563,,,,,,
,,,,,,,,,,,,,,,,48.210426,16.374546,178.995361,-1.000000,-1.000000,1482007118.09
1482007118.16,-0.005260,0.123551,-0.255324,-0.036068,-0.027235,-0.248173,-0.005220,-0.123237,-0.992364,0.023240,-0.016564,-0.005134,19.715406,9.057617,-39.920380,,,,,,
,,,,,,,,,,,,,,,,48.210426,16.374546,178.995361,-1.000000,-1.000000,1482007118.12
1482007118.21,-0.005953,0.122660,-0.266917,-0.018518,-0.079470,-0.243328,-0.005909,-0.122353,-0.992469,0.000324,-0.003349,-0.008828,19.544132,9.328999,-39.942093,,,,,,
1482007118.26,-0.010210,0.119351,-0.278736,-0.109596,-0.088382,-0.233746,-0.010138,-0.119068,-0.992834,0.000662,-0.003628,0.006811,19.215403,9.655526,-40.023911,,,,,,
1482007118.31,-0.010395,0.114952,-0.290151,-0.069639,-0.082614,-0.242694,-0.010327,-0.114699,-0.993347,0.012707,-0.004731,-0.031586,19.049084,9.938480,-40.034149,,,,,,
1482007118.35,-0.012019,0.113613,-0.302770,-0.072034,-0.065551,-0.264411,-0.011942,-0.113369,-0.993481,0.000971,-0.016514,0.010647,18.863094,10.284290,-40.034874,,,,,,
1482007118.40,-0.011512,0.110044,-0.316082,-0.090674,-0.061686,-0.275038,-0.011442,-0.109822,-0.993885,0.014539,-0.007670,-0.014797,18.567133,10.752552,-40.050194,,,,,,
1482007118.45,-0.009859,0.109552,-0.329333,-0.100759,-0.081051,-0.229096,-0.009799,-0.109333,-0.993957,0.054447,-0.046535,0.016738,18.472687,11.019105,-40.021412,,,,,,
1482007118.50,-0.009635,0.101031,-0.339646,-0.187165,0.031028,-0.209304,-0.009586,-0.100859,-0.994855,0.006580,-0.006395,-0.028537,18.273939,11.512794,-39.973652,,,,,,
1482007118.55,-0.006536,0.095650,-0.350652,-0.037365,0.011638,-0.230313,-0.006506,-0.095504,-0.995408,0.008185,0.017013,-0.057906,18.235796,11.991928,-39.850014,,,,,,
1482007118.59,-0.005036,0.094511,-0.361705,-0.024934,-0.000628,-0.217167,-0.005014,-0.094371,-0.995525,0.007669,-0.006490,-0.013341,18.160517,12.163902,-39.832264,,,,,,
1482007118.64,-0.004553,0.094292,-0.369117,-0.071563,-0.039373,-0.100862,-0.004533,-0.094153,-0.995547,0.019212,-0.027964,0.004047,18.027594,12.391624,-39.822453,,,,,,
1482007118.69,-0.007684,0.090360,-0.373131,-0.077890,-0.104863,-0.055942,-0.007653,-0.090237,-0.995891,0.039208,-0.024387,-0.024205,17.918158,12.551136,-39.821888,,,,,,
1482007118.74,-0.010903,0.088680,-0.374011,-0.008549,-0.090055,0.045446,-0.010859,-0.088564,-0.996011,0.052043,-0.033552,-0.022894,17.698156,12.754938,-39.855503,,,,,,
1482007118.79,-0.012296,0.091579,-0.370741,-0.089753,-0.090655,0.093385,-0.012245,-0.091452,-0.995734,0.022453,-0.032206,0.032294,17.634365,12.654844,-39.915638,,,,,,
1482007118.83,-0.014862,0.089226,-0.364808,-0.068732,-0.036431,0.113341,-0.014802,-0.089107,-0.995912,-0.030303,-0.004719,0.004701,17.653093,12.560509,-39.937149,,,,,,
1482007118.88,-0.016701,0.084890,-0.361667,-0.117024,-0.006645,0.033147,-0.016640,-0.084788,-0.996260,-0.074364,0.015758,0.008696,17.631233,12.640252,-39.921646,,,,,,
1482007118.93,-0.018012,0.080173,-0.362488,-0.082730,-0.087746,-0.052355,-0.017953,-0.080087,-0.996626,-0.060798,0.023645,-0.056368,17.637325,12.774416,-39.876225,,,,,,
1482007118.98,-0.021961,0.078144,-0.365671,-0.016620,-0.067717,-0.061683,-0.021892,-0.078065,-0.996708,-0.018437,-0.016646,-0.017681,17.467859,12.967505,-39.888496,,,,,,
1482007119.03,-0.026506,0.078589,-0.368244,-0.004082,-0.102971,-0.056853,-0.026421,-0.078508,-0.996563,0.001031,-0.012724,-0.015140,17.280901,13.051974,-39.942345,,,,,,
1482007119.07,-0.029502,0.076174,-0.369906,-0.056875,-0.036103,-0.005965,-0.029412,-0.076100,-0.996666,0.006081,-0.029155,-0.012367,17.006750,13.147687,-40.028526,,,,,,
1482007119.12,-0.032113,0.074319,-0.369857,-0.044435,-0.058065,0.009633,-0.032018,-0.074251,-0.996725,0.001608,-0.018782,-0.008325,16.912912,13.232552,-40.040318,,,,,,
1482007119.17,-0.034279,0.072297,-0.369712,0.004253,-0.047554,-0.005455,-0.034182,-0.072234,-0.996802,-0.006147,0.002059,-0.042581,16.842957,13.307095,-40.045101,,,,,,
1482007119.22,-0.035751,0.072938,-0.370399,-0.003248,-0.028098,-0.010268,-0.035649,-0.072874,-0.996704,-0.016521,-0.008471,0.017364,16.746244,13.309435,-40.084866,,,,,,
1482007119.27,-0.038488,0.072608,-0.369917,-0.079365,-0.042036,0.007585,-0.038377,-0.072544,-0.996627,-0.007826,-0.013531,0.021682,16.708534,13.323342,-40.095978,,,,,,
1482007119.31,-0.042969,0.069502,-0.370046,-0.051854,-0.018037,-0.015722,-0.042852,-0.069446,-0.996665,-0.014536,-0.002911,-0.023965,16.531311,13.369634,-40.153988,,,,,,
1482007119.36,-0.044413,0.068491,-0.371190,-0.016903,-0.007432,-0.024623,-0.044294,-0.068437,-0.996672,-0.009692,-0.005217,-0.024965,16.427059,13.472690,-40.162327,,,,,,
1482007119.41,-0.046600,0.069102,-0.372726,-0.008085,-0.026890,-0.030652,-0.046472,-0.069047,-0.996530,-0.007315,-0.010390,-0.011603,16.275036,13.496794,-40.216091,,,,,,
1482007119.46,-0.047161,0.069699,-0.373477,-0.010667,-0.043905,-0.006468,-0.047029,-0.069643,-0.996463,0.002259,0.000139,0.004107,16.240349,13.493838,-40.231098,,,,,,
1482007119.51,-0.049819,0.067881,-0.373792,-0.051767,-0.068958,-0.008255,-0.049684,-0.067828,-0.996459,-0.000823,0.003040,-0.005448,16.143185,13.551625,-40.250778,,,,,,
1482007119.56,-0.052471,0.066651,-0.373966,-0.040623,-0.064267,0.008436,-0.052330,-0.066602,-0.996406,0.008446,-0.010638,-0.002388,16.011515,13.639372,-40.273727,,,,,,
1482007119.60,-0.057073,0.065269,-0.373453,-0.038206,-0.026797,0.007035,-0.056921,-0.065223,-0.996246,-0.020258,0.003272,0.002533,15.941412,13.637688,-40.302097,,,,,,
1482007119.65,-0.059448,0.061458,-0.374234,-0.064108,-0.048184,-0.044303,-0.059301,-0.061419,-0.996349,-0.016215,0.014819,-0.025364,15.807943,13.718337,-40.327293,,,,,,
1482007119.70,-0.059744,0.060290,-0.375884,-0.034384,-0.021908,-0.011091,-0.059600,-0.060253,-0.996402,0.018905,-0.011814,-0.024518,15.668255,13.892863,-40.322056,,,,,,
1482007119.75,-0.061315,0.059760,-0.375625,-0.018238,-0.054839,0.018955,-0.061167,-0.059724,-0.996339,0.013315,-0.014312,-0.010314,15.618301,13.951855,-40.321068,,,,,,
1482007119.80,-0.063180,0.058886,-0.373938,-0.028255,-0.043868,0.023840,-0.063029,-0.058852,-0.996275,-0.006551,0.008742,-0.022753,15.605515,13.906368,-40.341728,,,,,,
1482007119.84,-0.065548,0.058749,-0.373804,0.006799,-0.022269,-0.010391,-0.065388,-0.058715,-0.996131,-0.009715,-0.001374,-0.012841,15.522679,13.937815,-40.362827,,,,,,
1482007119.89,-0.066876,0.058911,-0.375028,-0.005565,0.005779,-0.041663,-0.066710,-0.058876,-0.996034,-0.003434,0.002266,-0.021788,15.427809,13.941385,-40.397957,,,,,,
1482007119.94,-0.065964,0.059539,-0.376893,0.045509,0.028323,-0.039986,-0.065799,-0.059504,-0.996057,-0.001004,0.005457,-0.019812,15.411895,13.964316,-40.396107,,,,,,
1482007119.99,-0.064170,0.060934,-0.378166,-0.003204,-0.018562,-0.005472,-0.064007,-0.060897,-0.996090,0.007046,0.003264,0.002346,15.432570,13.935940,-40.398014,,,,,,
1482007120.04,-0.064825,0.060791,-0.378295,-0.003206,-0.020989,-0.003053,-0.064660,-0.060753,-0.996056,0.003777,-0.004493,0.001305,15.444227,13.941019,-40.391804,,,,,,
1482007120.08,-0.064614,0.061276,-0.378064,-0.036981,-0.001365,0.014116,-0.064448,-0.061238,-0.996040,0.006815,-0.008419,-0.003914,15.436466,13.918182,-40.402649,,,,,,
1482007120.13,-0.065301,0.058661,-0.377428,-0.018195,-0.007538,-0.000527,-0.065143,-0.058627,-0.996152,-0.009824,0.010592,-0.026309,15.456133,13.969440,-40.377430,,,,,,
1482007120.18,-0.066029,0.057760,-0.378035,-0.015632,0.009457,-0.023506,-0.065871,-0.057728,-0.996157,-0.012270,0.005222,0.003222,15.399920,14.040182,-40.374371,,,,,,
1482007120.23,-0.066073,0.056946,-0.380106,-0.041644,0.009807,-0.058095,-0.065918,-0.056915,-0.996201,-0.009873,-0.001908,0.006668,15.394363,14.098463,-40.356178,,,,,,
1482007120.28,-0.065845,0.055153,-0.382867,-0.049163,0.014672,-0.053208,-0.065697,-0.055125,-0.996316,-0.004249,-0.000295,-0.021751,15.347003,14.169176,-40.349449,,,,,,
1482007120.32,-0.066065,0.052618,-0.386182,-0.064011,-0.009363,-0.066155,-0.065926,-0.052594,-0.996437,-0.002342,-0.001148,-0.015220,15.313672,14.309540,-40.312561,,,,,,
1482007120.37,-0.066336,0.050454,-0.390254,-0.055228,0.018469,-0.086854,-0.066203,-0.050433,-0.996531,-0.005559,0.001590,-0.010915,15.223964,14.467932,-40.289997,,,,,,
1482007120.42,-0.065167,0.049126,-0.395727,-0.007611,-0.003612,-0.122239,-0.065043,-0.049106,-0.996673,0.001535,0.008747,-0.007080,15.165348,14.660829,-40.242344,,,,,,
1482007120.47,-0.062977,0.046265,-0.402837,-0.072458,0.009140,-0.133541,-0.062868,-0.046248,-0.996950,0.021731,0.004134,0.008394,15.104492,14.878912,-40.185154,,,,,,
1482007120.52,-0.061010,0.042696,-0.409614,-0.104929,0.044570,-0.140532,-0.060916,-0.042683,-0.997230,0.005298,0.001926,0.032111,15.087816,15.131177,-40.097122,,,,,,
1482007120.56,-0.058840,0.035163,-0.417271,-0.189702,0.078077,-0.162521,-0.058769,-0.035156,-0.997652,-0.015480,-0.005845,0.029864,15.051300,15.520994,-39.961620,,,,,,
1482007120.61,-0.054607,0.026742,-0.426494,-0.172006,0.053837,-0.197531,-0.054560,-0.026739,-0.998152,0.000086,-0.004785,-0.055055,15.078078,15.842047,-39.825310,,,,,,
1482007120.66,-0.050431,0.023226,-0.435821,-0.059922,0.046664,-0.156743,-0.050396,-0.023224,-0.998459,0.028072,-0.025497,-0.057129,15.048733,16.302299,-39.650280,,,,,,
1482007120.71,-0.047390,0.022996,-0.442319,0.017222,0.062819,-0.127670,-0.047360,-0.022994,-0.998613,0.020977,-0.014253,-0.022947,15.086370,16.515465,-39.547630,,,,,,
1482007120.76,-0.043759,0.024100,-0.447493,-0.037789,0.036546,-0.085952,-0.043733,-0.024098,-0.998753,0.020280,-0.011501,-0.003857,15.084128,16.593990,-39.515598,,,,,,
1482007120.80,-0.043334,0.023092,-0.449556,-0.006813,-0.026934,-0.019831,-0.043308,-0.023090,-0.998795,0.016957,-0.004742,-0.010177,15.137904,16.642221,-39.474731,,,,,,
1482007120.85,-0.044498,0.021341,-0.450982,-0.072939,0.013646,-0.030045,-0.044474,-0.021340,-0.998783,0.003717,-0.002296,-0.018490,15.055230,16.727406,-39.470345,,,,,,
,,,,,,,,,,,,,,,,48.210428,16.374546,178.995987,-1.000000,-1.000000,1482007120.86
1482007120.90,-0.044561,0.020002,-0.453548,-0.001597,-0.007423,-0.069338,-0.044538,-0.020001,-0.998807,0.005933,0.003537,-0.037157,15.024447,16.821281,-39.442169,,,,,,
1482007120.95,-0.044190,0.021491,-0.457520,0.025892,-0.005205,-0.076908,-0.044165,-0.021489,-0.998793,0.014212,-0.009425,-0.030611,14.971888,16.853956,-39.448208,,,,,,
1482007121.00,-0.043310,0.024048,-0.460979,0.043345,0.000709,-0.075947,-0.043284,-0.024046,-0.998773,0.013102,-0.004641,-0.006735,14.924321,16.833204,-39.475079,,,,,,
1482007121.04,-0.041670,0.028669,-0.463837,0.053254,-0.013962,-0.044708,-0.041641,-0.028665,-0.998721,0.009292,-0.017050,0.006931,14.930391,16.716362,-39.522408,,,,,,
1482007121.09,-0.042347,0.029566,-0.464229,0.005548,-0.012549,0.016053,-0.042316,-0.029562,-0.998667,0.004566,-0.005686,-0.007101,14.893497,16.659792,-39.560196,,,,,,
1482007121.14,-0.046274,0.028841,-0.463566,-0.026752,-0.032834,-0.003913,-0.046238,-0.028837,-0.998514,-0.019055,0.002256,0.000971,14.826281,16.634800,-39.595947,,,,,,
1482007121.19,-0.046148,0.027968,-0.464042,0.006977,-0.040343,-0.012718,-0.046113,-0.027965,-0.998545,0.016801,0.006664,-0.048285,14.730899,16.682295,-39.611561,,,,,,
1482007121.24,-0.048778,0.030742,-0.464097,0.089122,-0.029075,0.016316,-0.048735,-0.030738,-0.998339,0.031035,-0.020425,0.001802,14.656277,16.633512,-39.659725,,,,,,
1482007121.28,-0.049900,0.033698,-0.461361,0.036491,-0.033631,0.069942,-0.049851,-0.033692,-0.998188,0.016113,-0.015624,-0.001507,14.624178,16.527254,-39.715961,,,,,,
1482007121.33,-0.051212,0.035539,-0.457839,0.024040,-0.023803,0.061622,-0.051158,-0.035531,-0.998058,-0.011159,0.005502,-0.000492,14.648906,16.368942,-39.772373,,,,,,
1482007121.38,-0.053044,0.036785,-0.455476,0.032866,0.001629,0.031306,-0.052983,-0.036777,-0.997918,-0.019176,0.004840,0.002602,14.670963,16.222963,-39.824020,,,,,,
1482007121.43,-0.053865,0.037772,-0.454620,-0.000728,0.008019,0.013633,-0.053801,-0.037764,-0.997837,-0.017961,-0.000216,0.000279,14.650734,16.174395,-39.851215,,,,,,
1482007121.48,-0.054845,0.037062,-0.454196,-0.000610,-0.005250,-0.005563,-0.054780,-0.037053,-0.997811,-0.018249,0.006291,-0.030738,14.621629,16.160673,-39.867462,,,,,,
1482007121.52,-0.055387,0.039158,-0.454660,0.078037,-0.014391,-0.014908,-0.055316,-0.039148,-0.997701,-0.001294,-0.006476,-0.013957,14.553752,16.143309,-39.899326,,,,,,
1482007121.57,-0.056182,0.042922,-0.455523,0.058014,-0.002147,-0.005091,-0.056100,-0.042909,-0.997503,-0.002493,-0.007445,0.006017,14.518315,16.051147,-39.949383,,,,,,
1482007121.62,-0.058841,0.043726,-0.455788,-0.014238,-0.024525,-0.014932,-0.058751,-0.043712,-0.997315,-0.018230,0.001765,0.003449,14.472401,15.938875,-40.010948,,,,,,
1482007121.67,-0.059876,0.042742,-0.458150,-0.001556,0.014302,-0.074246,-0.059785,-0.042729,-0.997296,-0.022856,0.010777,-0.020160,14.362486,15.970101,-40.038094,,,,,,
1482007121.72,-0.061478,0.042782,-0.463019,-0.028829,0.023086,-0.107657,-0.061383,-0.042769,-0.997198,-0.010211,-0.007082,-0.044703,14.177628,16.087246,-40.057079,,,,,,
1482007121.76,-0.062375,0.043491,-0.468966,0.044867,-0.024783,-0.108335,-0.062275,-0.043478,-0.997112,0.014576,-0.012766,-0.037511,14.035662,16.175138,-40.071678,,,,,,
1482007121.81,-0.063232,0.047009,-0.473143,0.029859,-0.087717,-0.068142,-0.063120,-0.046991,-0.996899,0.042689,-0.028204,0.001736,13.868838,16.162947,-40.134632,,,,,,
1482007121.86,-0.067558,0.048814,-0.473333,0.039284,-0.059099,0.026699,-0.067426,-0.048795,-0.996530,0.032300,-0.019259,0.010553,13.738182,16.060293,-40.220688,,,,,,
1482007121.91,-0.071752,0.050167,-0.470560,-0.014463,-0.078128,0.061146,-0.071600,-0.050146,-0.996172,-0.005472,-0.013452,0.020434,13.678261,16.001902,-40.264355,,,,,,
1482007121.96,-0.075233,0.048211,-0.468436,-0.031797,-0.053629,0.026338,-0.075074,-0.048192,-0.996013,-0.013427,0.011373,-0.003713,13.545893,15.952581,-40.328629,,,,,,
1482007122.00,-0.077758,0.048042,-0.468556,-0.006732,-0.002866,-0.016335,-0.077590,-0.048024,-0.995828,-0.017640,-0.006694,0.012536,13.461691,15.995275,-40.339909,,,,,,
1482007122.05,-0.078171,0.045471,-0.469717,-0.095217,0.007656,-0.034558,-0.078011,-0.045455,-0.995916,-0.014396,-0.000687,-0.011225,13.390976,16.063669,-40.336266,,,,,,
1482007122.10,-0.077018,0.041647,-0.472795,-0.024026,0.011976,-0.059521,-0.076875,-0.041635,-0.996171,0.028794,-0.009283,-0.034255,13.355907,16.290518,-40.256836,,,,,,
1482007122.15,-0.076947,0.041368,-0.473894,0.010555,0.012632,0.006255,-0.076805,-0.041356,-0.996188,0.036720,-0.025645,-0.014875,13.332615,16.342993,-40.243286,,,,,,
1482007122.20,-0.074605,0.043176,-0.472571,-0.035823,0.054083,0.043936,-0.074467,-0.043162,-0.996289,-0.006359,-0.009526,0.000165,13.420874,16.238361,-40.256302,,,,,,
1482007122.24,-0.072039,0.042212,-0.471245,-0.023201,0.045591,0.018543,-0.071912,-0.042199,-0.996518,-0.017824,0.003671,-0.021671,13.515471,16.254950,-40.217941,,,,,,
1482007122.29,-0.070371,0.041987,-0.471661,0.036859,0.041563,-0.018282,-0.070251,-0.041974,-0.996646,0.007934,-0.002337,-0.046994,13.606743,16.279448,-40.177235,,,,,,
1482007122.34,-0.069527,0.044713,-0.471848,0.068042,0.024309,-0.011361,-0.069402,-0.044698,-0.996587,0.010289,-0.015055,-0.002330,13.657280,16.242538,-40.175026,,,,,,
1482007122.39,-0.066271,0.048216,-0.471423,-0.005809,0.042961,0.040004,-0.066146,-0.048197,-0.996645,0.022002,-0.018438,0.000124,13.776254,16.033728,-40.218262,,,,,,
1482007122.44,-0.065462,0.048289,-0.468881,0.005374,0.001603,0.065337,-0.065339,-0.048270,-0.996695,0.006684,-0.009317,0.002951,13.866350,15.998631,-40.201271,,,,,,
1482007122.48,-0.066668,0.047954,-0.466148,-0.048183,0.003300,0.053949,-0.066543,-0.047936,-0.996631,-0.008790,-0.002723,-0.001721,13.891457,15.962341,-40.207031,,,,,,
1482007122.53,-0.066603,0.046368,-0.465007,0.011903,0.016262,0.005008,-0.066483,-0.046351,-0.996710,-0.006012,0.003520,-0.034585,13.906257,15.989253,-40.191216,,,,,,
1482007122.58,-0.065479,0.047295,-0.465388,0.032000,0.006501,-0.019266,-0.065359,-0.047277,-0.996741,0.005453,-0.008585,0.004477,13.918928,15.997046,-40.183731,,,,,,
1482007122.63,-0.063399,0.049300,-0.466279,0.009546,0.009130,-0.015396,-0.063279,-0.049280,-0.996778,0.015443,-0.016317,-0.009844,13.951978,15.952749,-40.189877,,,,,,
1482007122.68,-0.060805,0.051994,-0.466293,0.005721,0.016389,0.003870,-0.060686,-0.051970,-0.996803,0.000306,-0.011811,0.015602,14.061074,15.863089,-40.187344,,,,,,
1482007122.72,-0.061295,0.049927,-0.465759,-0.049158,0.018073,0.002129,-0.061181,-0.049906,-0.996878,-0.018394,0.003428,-0.014001,14.128788,15.838768,-40.173187,,,,,,
1482007122.77,-0.062215,0.047975,-0.467413,-0.018891,0.008335,-0.063190,-0.062103,-0.047957,-0.996917,-0.024887,0.015868,-0.018311,14.044269,15.960505,-40.154640,,,,,,
1482007122.82,-0.061749,0.047893,-0.472018,0.012509,-0.002699,-0.100836,-0.061639,-0.047875,-0.996950,-0.005332,-0.003059,-0.041777,13.990231,16.043404,-40.140465,,,,,,
1482007122.87,-0.061491,0.049343,-0.476698,0.019997,-0.008828,-0.097290,-0.061378,-0.049323,-0.996895,0.024451,-0.019464,-0.025001,13.915421,16.067978,-40.156631,,,,,,
1482007122.92,-0.062083,0.051593,-0.479355,0.037099,-0.015304,-0.025248,-0.061960,-0.051570,-0.996745,0.036554,-0.029775,-0.007542,13.856947,16.059839,-40.180103,,,,,,
1482007122.96,-0.058912,0.055378,-0.478748,0.077981,-0.019457,0.034449,-0.058788,-0.055350,-0.996735,0.046444,-0.016931,-0.006546,13.824757,15.989468,-40.219242,,,,,,
1482007123.01,-0.061095,0.056592,-0.475360,-0.033302,-0.018667,0.087565,-0.060959,-0.056562,-0.996536,-0.004699,-0.030154,0.064468,13.938389,15.799558,-40.255054,,,,,,
1482007123.06,-0.062184,0.051632,-0.471468,-0.081882,0.016946,0.056702,-0.062061,-0.051609,-0.996737,-0.031750,0.010533,-0.032758,14.027077,15.832699,-40.211201,,,,,,
1482007123.11,-0.062366,0.050200,-0.470728,0.005753,-0.013912,0.006423,-0.062247,-0.050179,-0.996799,-0.019692,0.016503,-0.042066,13.974262,15.944964,-40.185223,,,,,,
1482007123.16,-0.065150,0.049297,-0.471990,-0.013845,-0.059557,-0.043678,-0.065025,-0.049277,-0.996666,-0.015908,-0.009942,-0.014000,13.867380,15.984568,-40.206512,,,,,,
1482007123.20,-0.066498,0.048992,-0.473885,0.002307,-0.020943,-0.047667,-0.066369,-0.048972,-0.996593,-0.003012,-0.009347,-0.028401,13.764869,16.033535,-40.222237,,,,,,
1482007123.25,-0.064645,0.051934,-0.476468,0.069712,-0.028751,-0.049663,-0.064513,-0.051911,-0.996566,0.003004,-0.013626,-0.041017,13.755227,16.031832,-40.226215,,,,,,
1482007123.30,-0.064610,0.054525,-0.478641,0.034565,0.051431,-0.039979,-0.064469,-0.054498,-0.996430,-0.000427,-0.004141,0.007615,13.723376,15.929104,-40.277870,,,,,,
1482007123.35,-0.062946,0.053623,-0.481319,-0.083841,0.062221,-0.059042,-0.062814,-0.053598,-0.996585,0.006281,-0.004065,-0.011670,13.734184,15.905057,-40.283688,,,,,,
1482007123.40,-0.059629,0.051319,-0.485598,-0.008914,0.042218,-0.068291,-0.059515,-0.051297,-0.996908,0.036597,-0.010181,-0.051599,13.801052,16.123304,-40.173923,,,,,,
1482007123.44,-0.057456,0.052186,-0.487144,0.031846,0.052478,0.004587,-0.057347,-0.052162,-0.996991,0.026722,-0.042061,-0.005100,13.845284,16.143311,-40.150665,,,,,,
1482007123.49,-0.055321,0.053308,-0.485657,0.010556,0.028353,0.031441,-0.055214,-0.053283,-0.997052,-0.015190,-0.016023,0.014844,13.959946,16.074966,-40.138378,,,,,,
1482007123.54,-0.055940,0.053673,-0.484373,0.013262,0.034509,-0.010747,-0.055831,-0.053647,-0.996998,-0.022706,0.023786,-0.003231,13.963181,16.032162,-40.154373,,,,,,
1482007123.59,-0.056474,0.053850,-0.485418,-0.021539,-0.023298,-0.010051,-0.056363,-0.053824,-0.996958,0.004101,-0.004128,0.032710,13.973589,16.022310,-40.154682,,,,,,
1482007123.64,-0.055983,0.051641,-0.486722,-0.053943,0.017010,-0.029103,-0.055880,-0.051618,-0.997102,0.017107,-0.011828,-0.031920,13.922989,16.059748,-40.157303,,,,,,
1482007123.68,-0.056821,0.050679,-0.487409,-0.029111,-0.034223,0.014165,-0.056717,-0.050657,-0.997104,0.026352,-0.025988,-0.007153,13.925224,16.176441,-40.109661,,,,,,
1482007123.73,-0.058709,0.049449,-0.486566,-0.071462,-0.022922,0.004999,-0.058603,-0.049429,-0.997057,-0.014868,-0.009028,-0.017820,13.839849,16.197546,-40.130692,,,,,,
1482007123.78,-0.059446,0.048178,-0.487181,-0.017680,-0.018442,-0.025772,-0.059342,-0.048159,-0.997075,0.000367,0.007388,-0.032298,13.802726,16.279528,-40.110294,,,,,,
1482007123.83,-0.061242,0.046915,-0.490115,-0.048588,-0.032526,-0.073474,-0.061137,-0.046897,-0.997027,-0.005636,0.001060,-0.013608,13.713543,16.346193,-40.113773,,,,,,
1482007123.88,-0.061501,0.046084,-0.493923,-0.002452,-0.007482,-0.081378,-0.061397,-0.046067,-0.997050,0.006420,0.002107,-0.015859,13.603268,16.466442,-40.102139,,,,,,
1482007123.92,-0.056538,0.050038,-0.497700,0.047354,-0.011570,-0.053093,-0.056438,-0.050017,-0.997153,0.016673,-0.010011,-0.012888,13.619200,16.464304,-40.097607,,,,,,
1482007123.97,-0.057737,0.051269,-0.499389,0.002346,-0.033074,-0.023553,-0.057629,-0.051247,-0.997022,0.009838,-0.004188,0.014814,13.678785,16.361391,-40.119446,,,,,,
1482007124.02,-0.059429,0.050023,-0.500666,-0.050072,0.003727,-0.032710,-0.059319,-0.050002,-0.996986,-0.002052,0.000899,-0.015664,13.594465,16.366474,-40.146019,,,,,,
1482007124.07,-0.058543,0.048976,-0.502145,0.009751,0.016510,-0.029892,-0.058440,-0.048956,-0.997090,0.013472,-0.000604,-0.033077,13.551422,16.496984,-40.107140,,,,,,
1482007124.12,-0.057076,0.049733,-0.503701,-0.031407,0.039902,-0.034314,-0.056974,-0.049713,-0.997137,0.004423,-0.011658,-0.007975,13.558681,16.498857,-40.103912,,,,,,
1482007124.16,-0.054416,0.050256,-0.505212,0.038490,0.055075,-0.048481,-0.054321,-0.050235,-0.997259,0.002594,0.008059,-0.040476,13.644565,16.503582,-40.072834,,,,,,
1482007124.21,-0.048567,0.053188,-0.507383,0.029721,0.029707,-0.025394,-0.048480,-0.053163,-0.997408,0.022753,-0.015151,-0.000898,13.791369,16.455091,-40.042507,,,,,,
1482007124.26,-0.047237,0.054545,-0.507252,0.010848,0.023699,0.012177,-0.047150,-0.054518,-0.997399,-0.004593,-0.006853,0.014947,13.896259,16.372471,-40.040108,,,,,,
1482007124.31,-0.048120,0.054150,-0.507213,-0.043975,0.014487,0.005676,-0.048031,-0.054124,-0.997378,-0.005085,0.004319,-0.013089,13.894271,16.340199,-40.053978,,,,,,
1482007124.36,-0.048400,0.053641,-0.507887,0.007485,-0.020903,-0.041731,-0.048312,-0.053616,-0.997392,-0.013151,0.023998,-0.033385,13.862793,16.401779,-40.039711,,,,,,
1482007124.40,-0.047309,0.054205,-0.509931,0.028630,0.023750,-0.049423,-0.047221,-0.054178,-0.997414,0.013530,0.000498,-0.027885,13.818628,16.413979,-40.049980,,,,,,
1482007124.45,-0.046374,0.056376,-0.511325,0.022257,-0.006592,-0.009485,-0.046284,-0.056346,-0.997338,0.016926,-0.020070,0.004906,13.867544,16.360895,-40.054794,,,,,,
1482007124.50,-0.047064,0.056876,-0.510233,0.018352,-0.007891,0.023068,-0.046971,-0.056845,-0.997277,-0.005855,0.003150,-0.029441,13.867381,16.313593,-40.074139,,,,,,
1482007124.55,-0.047955,0.058626,-0.509826,0.055911,-0.016611,-0.002627,-0.047855,-0.058592,-0.997134,-0.009122,0.006956,-0.024396,13.833085,16.261694,-40.107071,,,,,,
1482007124.60,-0.048652,0.061744,-0.510523,0.065983,0.002762,-0.029321,-0.048540,-0.061705,-0.996913,-0.003889,-0.002046,0.009029,13.804978,16.202417,-40.140732,,,,,,
1482007124.64,-0.048632,0.063222,-0.512399,0.006191,-0.012422,-0.036943,-0.048515,-0.063180,-0.996822,0.000893,-0.009635,-0.002186,13.774718,16.092201,-40.195431,,,,,,
1482007124.69,-0.047587,0.065158,-0.513570,0.032273,0.017564,-0.027771,-0.047468,-0.065112,-0.996748,-0.007555,0.004992,-0.019655,13.775768,16.039404,-40.216167,,,,,,
1482007124.74,-0.047231,0.067325,-0.514650,0.068443,-0.013069,-0.016034,-0.047107,-0.067274,-0.996622,0.015338,0.004866,-0.024801,13.765682,15.997938,-40.236130,,,,,,
1482007124.79,-0.046225,0.071087,-0.513921,0.026976,0.005277,0.040958,-0.046092,-0.071027,-0.996409,0.003749,-0.006976,0.017054,13.797129,15.847123,-40.285007,,,,,,
1482007124.84,-0.045826,0.071747,-0.512200,-0.000406,0.009195,0.029238,-0.045692,-0.071686,-0.996380,-0.003899,0.000351,-0.000400,13.849522,15.763685,-40.299767,,,,,,
1482007124.88,-0.046282,0.070981,-0.510778,0.004677,0.021333,0.002641,-0.046149,-0.070921,-0.996414,-0.015482,0.005446,-0.005234,13.882299,15.760468,-40.289745,,,,,,
1482007124.93,-0.046050,0.070449,-0.509981,-0.007875,0.020166,0.018449,-0.045919,-0.070390,-0.996462,-0.012766,0.003618,-0.009626,13.867705,15.771279,-40.290543,,,,,,
1482007124.98,-0.048509,0.068913,-0.509573,0.010970,0.010361,-0.009414,-0.048375,-0.068859,-0.996453,-0.018337,0.009991,-0.026557,13.866138,15.795531,-40.281578,,,,,,
1482007125.03,-0.049846,0.069586,-0.509806,0.029734,-0.034642,-0.002210,-0.049704,-0.069530,-0.996341,-0.007455,-0.002599,-0.027249,13.758541,15.817482,-40.309849,,,,,,
1482007125.08,-0.051744,0.071449,-0.509463,0.030985,-0.031031,-0.003446,-0.051589,-0.071388,-0.996114,-0.005738,-0.000465,-0.000392,13.694675,15.741161,-40.361443,,,,,,
1482007125.12,-0.052897,0.072508,-0.509222,0.001018,-0.029574,0.002931,-0.052733,-0.072444,-0.995977,-0.002443,0.001765,0.001699,13.638853,15.684744,-40.402287,,,,,,
1482007125.17,-0.055136,0.071419,-0.509428,-0.018873,-0.026928,-0.012483,-0.054967,-0.071359,-0.995935,-0.003687,0.002175,-0.016333,13.553383,15.711447,-40.420666,,,,,,
1482007125.22,-0.056629,0.071178,-0.510040,0.013554,-0.026002,-0.012884,-0.056455,-0.071118,-0.995869,0.003187,-0.001835,-0.026516,13.477344,15.747794,-40.431946,,,,,,
1482007125.27,-0.058454,0.072078,-0.510223,-0.005177,-0.039201,-0.000558,-0.058269,-0.072015,-0.995700,-0.004429,-0.006201,0.002368,13.441275,15.728282,-40.451546,,,,,,
1482007125.32,-0.059630,0.071023,-0.510642,-0.032671,0.001012,-0.006428,-0.059445,-0.070963,-0.995706,0.002300,-0.007406,0.000406,13.346103,15.725660,-40.484062,,,,,,
1482007125.36,-0.059196,0.069981,-0.511158,-0.023904,-0.013580,-0.007671,-0.059017,-0.069924,-0.995805,-0.000172,0.003655,-0.008330,13.346251,15.791126,-40.458523,,,,,,
1482007125.41,-0.059062,0.068807,-0.511751,-0.016498,0.006919,-0.001839,-0.058888,-0.068753,-0.995894,0.002674,0.007474,-0.017320,13.332957,15.859831,-40.436024,,,,,,
1482007125.46,-0.059351,0.067711,-0.511427,-0.022782,-0.002750,0.010320,-0.059181,-0.067660,-0.995952,-0.000161,-0.000288,0.002650,13.332566,15.897875,-40.421215,,,,,,
1482007125.51,-0.059828,0.065757,-0.511140,-0.045193,-0.000100,0.002156,-0.059664,-0.065709,-0.996054,-0.003157,-0.000224,-0.003626,13.318640,15.958242,-40.402012,,,,,,
1482007125.56,-0.059169,0.063530,-0.511316,-0.035184,-0.009840,-0.002734,-0.059015,-0.063487,-0.996236,0.008432,0.000834,-0.009608,13.328081,16.011597,-40.377781,,,,,,
1482007125.60,-0.058634,0.061751,-0.511312,-0.026443,-0.001406,-0.008899,-0.058488,-0.061712,-0.996379,0.001604,-0.001002,-0.012395,13.371832,16.105928,-40.325764,,,,,,
1482007125.65,-0.058616,0.060725,-0.511441,0.000953,-0.000471,-0.000813,-0.058475,-0.060688,-0.996443,-0.007169,0.006595,-0.032244,13.365636,16.149168,-40.310524,,,,,,
1482007125.70,-0.058999,0.061211,-0.511835,0.001032,-0.022239,-0.007934,-0.058854,-0.061173,-0.996391,-0.001342,-0.002166,0.001899,13.353474,16.168818,-40.306679,,,,,,
1482007125.75,-0.059333,0.061635,-0.511842,-0.021439,-0.000247,-0.007763,-0.059185,-0.061596,-0.996345,0.004345,-0.004780,-0.014413,13.321709,16.148336,-40.325394,,,,,,
1482007125.80,-0.058708,0.061858,-0.512400,0.033424,0.024723,-0.014570,-0.058562,-0.061818,-0.996368,0.017149,-0.002055,-0.032883,13.335325,16.162786,-40.315102,,,,,,
1482007125.84,-0.057218,0.063472,-0.512128,0.020843,0.016290,0.013305,-0.057072,-0.063430,-0.996353,0.008060,-0.002610,0.000076,13.385350,16.100119,-40.323597,,,,,,
1482007125.89,-0.056368,0.064574,-0.511890,0.019666,0.000595,0.006170,-0.056220,-0.064529,-0.996331,0.016395,0.000214,0.006692,13.435310,16.063545,-40.321571,,,,,,
1482007125.94,-0.055239,0.066457,-0.510384,-0.036617,-0.017205,0.052681,-0.055089,-0.066408,-0.996271,-0.003428,-0.012602,0.017206,13.491553,15.997391,-40.329090,,,,,,
1482007125.99,-0.055596,0.064114,-0.507828,-0.034179,0.015462,0.052499,-0.055453,-0.064070,-0.996404,-0.008680,0.009718,-0.019710,13.517757,15.958624,-40.335674,,,,,,
1482007126.04,-0.055006,0.063549,-0.507490,0.026018,0.028503,-0.019314,-0.054867,-0.063506,-0.996472,-0.008426,-0.002885,-0.006152,13.572407,16.015755,-40.294659,,,,,,
1482007126.08,-0.054258,0.063301,-0.508000,-0.012652,0.009443,-0.010327,-0.054123,-0.063259,-0.996528,-0.005386,-0.009983,-0.012291,13.599805,16.018959,-40.284145,,,,,,
1482007126.13,-0.054138,0.064848,-0.508033,0.029662,0.000502,0.014474,-0.053998,-0.064803,-0.996436,-0.004169,-0.001969,-0.001519,13.611848,15.984462,-40.293781,,,,,,
1482007126.18,-0.054808,0.064593,-0.507659,-0.030163,-0.001366,0.006791,-0.054666,-0.064548,-0.996416,-0.006735,0.002720,0.018175,13.587875,15.954849,-40.313602,,,,,,
1482007126.23,-0.054134,0.062052,-0.507704,-0.026368,-0.002549,-0.007694,-0.054003,-0.062012,-0.996613,0.012438,0.005646,-0.017364,13.585062,16.002958,-40.295479,,,,,,
1482007126.28,-0.053830,0.061062,-0.507651,-0.026456,-0.009872,0.011599,-0.053704,-0.061024,-0.996691,0.014427,-0.008388,-0.007246,13.630718,16.092009,-40.244564,,,,,,
1482007126.32,-0.053290,0.059307,-0.506677,-0.024073,-0.014807,0.035665,-0.053171,-0.059273,-0.996825,0.007837,-0.002312,-0.026262,13.626384,16.139469,-40.227024,,,,,,
1482007126.37,-0.053282,0.059068,-0.504609,0.008199,-0.006708,0.062916,-0.053164,-0.059034,-0.996839,0.014376,-0.002963,-0.021853,13.702313,16.152233,-40.196095,,,,,,
1482007126.42,-0.054908,0.059073,-0.501148,-0.011769,-0.051395,0.083831,-0.054785,-0.059039,-0.996751,0.000860,-0.002530,0.008134,13.714553,16.100462,-40.212688,,,,,,
1482007126.47,-0.056611,0.057644,-0.496782,-0.028130,-0.034372,0.104414,-0.056487,-0.057613,-0.996740,0.010543,0.002330,-0.006144,13.718221,16.073744,-40.222126,,,,,,
1482007126.52,-0.058969,0.056788,-0.492663,-0.031821,-0.029460,0.092400,-0.058840,-0.056757,-0.996653,-0.006361,-0.001638,-0.004217,13.713436,16.042292,-40.236309,,,,,,
1482007126.56,-0.060903,0.055213,-0.488322,-0.020512,-0.042846,0.081491,-0.060772,-0.055185,-0.996625,-0.016880,-0.002219,-0.032504,13.703358,16.042942,-40.239487,,,,,,
1482007126.61,-0.064739,0.054005,-0.484645,0.013244,-0.012822,0.053256,-0.064599,-0.053979,-0.996450,-0.023902,0.000680,-0.060190,13.705052,16.037266,-40.241169,,,,,,
1482007126.66,-0.067039,0.055710,-0.482347,0.059427,-0.036248,0.056412,-0.066885,-0.055681,-0.996206,-0.019587,-0.006804,-0.032450,13.597266,15.981029,-40.300064,,,,,,
1482007126.71,-0.071695,0.056708,-0.479525,0.077106,-0.151416,0.057938,-0.071519,-0.056678,-0.995828,0.002427,0.015220,-0.024406,13.474876,15.828285,-40.401325,,,,,,
1482007126.76,-0.077471,0.058682,-0.476349,0.014590,-0.066091,0.047472,-0.077260,-0.058648,-0.995285,-0.011943,0.019509,0.054367,13.267412,15.719372,-40.512360,,,,,,
1482007126.80,-0.078753,0.056971,-0.477004,-0.059688,-0.022585,-0.078208,-0.078544,-0.056940,-0.995283,-0.040078,0.040614,-0.018557,13.208881,15.744934,-40.521557,,,,,,
1482007126.85,-0.077548,0.055264,-0.482619,0.005122,0.079875,-0.111980,-0.077352,-0.055236,-0.995473,0.017476,0.000244,-0.050197,13.124290,15.920184,-40.480549,,,,,,
1482007126.90,-0.068466,0.060527,-0.485880,0.085816,0.088626,-0.037177,-0.068287,-0.060490,-0.995830,0.051975,-0.029568,-0.036061,13.206978,15.919422,-40.453949,,,,,,
1482007126.95,-0.064180,0.065818,-0.484610,0.101431,0.097754,0.074531,-0.063997,-0.065770,-0.995780,0.050249,-0.041377,0.014762,13.516521,15.695898,-40.439049,,,,,,
1482007127.00,-0.059076,0.066529,-0.478873,-0.052280,0.107390,0.131737,-0.058911,-0.066479,-0.996047,0.004956,-0.012408,0.015258,13.758133,15.486465,-40.438313,,,,,,
1482007127.04,-0.053605,0.066157,-0.472925,0.036401,0.135794,0.095612,-0.053462,-0.066108,-0.996379,-0.013692,0.015937,-0.019200,14.191085,15.379461,-40.329388,,,,,,
1482007127.09,-0.049169,0.066171,-0.467750,-0.008563,0.091282,0.126462,-0.049041,-0.066122,-0.996606,0.011581,-0.014673,0.002953,14.480595,15.277777,-40.265072,,,,,,
1482007127.14,-0.044986,0.066233,-0.461481,-0.062191,0.033554,0.155073,-0.044873,-0.066184,-0.996798,0.014126,-0.023721,-0.008482,14.775739,15.157461,-40.203274,,,,,,
1482007127.19,-0.045640,0.064601,-0.453273,-0.057292,0.032200,0.179095,-0.045529,-0.064556,-0.996875,-0.008884,-0.008335,-0.002866,14.927804,15.116393,-40.162540,,,,,,
1482007127.24,-0.046636,0.061660,-0.445504,-0.022262,0.042847,0.152140,-0.046530,-0.061621,-0.997014,-0.014017,0.000449,-0.010783,14.976330,15.096024,-40.152134,,,,,,
1482007127.28,-0.048593,0.058184,-0.439723,-0.069360,0.038584,0.094966,-0.048491,-0.058151,-0.997129,-0.021394,0.001068,-0.014788,15.116342,15.058142,-40.113869,,,,,,
1482007127.33,-0.048054,0.056292,-0.435755,0.015644,0.030671,0.060263,-0.047959,-0.056262,-0.997264,-0.017303,0.003588,-0.047872,15.082414,15.139277,-40.096100,,,,,,
1482007127.38,-0.045812,0.059178,-0.433307,0.079195,0.083405,0.049611,-0.045716,-0.059143,-0.997202,-0.004470,0.000122,-0.005926,15.248211,15.005897,-40.083530,,,,,,
1482007127.43,-0.042672,0.061534,-0.430754,0.035566,0.077738,0.048965,-0.042578,-0.061495,-0.997199,-0.009790,0.001787,-0.012079,15.410625,14.849424,-40.079685,,,,,,
1482007127.48,-0.038179,0.064711,-0.428692,0.056793,0.096965,0.037781,-0.038090,-0.064666,-0.997180,-0.001659,-0.003281,-0.000821,15.618062,14.708789,-40.051239,,,,,,
1482007127.52,-0.033802,0.067001,-0.426858,0.052964,0.103002,0.053446,-0.033720,-0.066950,-0.997186,0.000532,-0.003347,-0.008261,15.823470,14.572211,-40.020527,,,,,,
1482007127.57,-0.030380,0.068490,-0.423975,0.036770,0.104350,0.047623,-0.030304,-0.068436,-0.997195,-0.017776,0.002610,-0.005979,15.990896,14.481028,-39.987061,,,,,,
1482007127.62,-0.026093,0.069645,-0.422056,0.053075,0.103053,0.030579,-0.026026,-0.069589,-0.997236,-0.003728,0.004708,-0.022204,16.144913,14.404058,-39.952961,,,,,,
1482007127.67,-0.021267,0.072363,-0.420816,0.048188,0.084989,0.018685,-0.021210,-0.072299,-0.997157,0.003845,-0.002514,-0.011769,16.423527,14.256174,-39.892395,,,,,,
1482007127.72,-0.017395,0.075320,-0.419629,0.059451,0.058254,0.023485,-0.017345,-0.075248,-0.997014,0.003383,-0.000374,-0.010707,16.619190,14.121990,-39.859077,,,,,,
1482007127.76,-0.014265,0.077574,-0.418314,0.051956,0.074087,0.017485,-0.014221,-0.077496,-0.996891,-0.001678,0.003872,0.001225,16.761911,13.996429,-39.843597,,,,,,
1482007127.81,-0.011275,0.079269,-0.417582,0.019560,0.040451,0.025261,-0.011240,-0.079186,-0.996796,0.004740,-0.002875,-0.001632,16.902912,13.911352,-39.813816,,,,,,
1482007127.86,-0.009468,0.081054,-0.416081,-0.017879,0.022568,0.041448,-0.009437,-0.080965,-0.996672,-0.002297,-0.013243,0.000197,17.010517,13.829904,-39.796360,,,,,,
1482007127.91,-0.008129,0.080885,-0.414105,-0.009135,0.023702,0.041335,-0.008102,-0.080797,-0.996698,0.002701,-0.008315,-0.023185,17.060505,13.787270,-39.789753,,,,,,
1482007127.96,-0.008166,0.080883,-0.412759,0.002202,0.034579,0.014667,-0.008139,-0.080795,-0.996697,-0.012445,0.000534,-0.005378,17.130930,13.761552,-39.768394,,,,,,
1482007128.00,-0.006657,0.081827,-0.411856,0.039617,0.026973,0.019058,-0.006634,-0.081736,-0.996632,0.005413,-0.003164,-0.035289,17.191591,13.717576,-39.757408,,,,,,
1482007128.05,-0.004957,0.085999,-0.410563,0.048329,0.037777,0.022511,-0.004938,-0.085893,-0.996292,-0.002325,-0.011794,0.003479,17.278509,13.561629,-39.773228,,,,,,
1482007128.10,-0.003163,0.088385,-0.409597,0.032155,0.025814,0.023967,-0.003151,-0.088270,-0.996092,-0.001869,-0.004946,-0.014925,17.368219,13.413960,-39.784225,,,,,,
1482007128.15,-0.002727,0.090401,-0.409011,-0.005197,0.018890,0.017237,-0.002716,-0.090277,-0.995913,-0.011109,-0.005334,0.010989,17.418163,13.323151,-39.792904,,,,,,
1482007128.20,-0.003258,0.089517,-0.409158,-0.026241,-0.005079,-0.005257,-0.003244,-0.089398,-0.995991,-0.005087,0.002804,-0.007595,17.407339,13.317800,-39.799435,,,,,,
1482007128.24,-0.001260,0.089816,-0.410394,0.003758,0.018969,-0.026204,-0.001255,-0.089696,-0.995968,0.017261,-0.011989,-0.007526,17.382343,13.362810,-39.795269,,,,,,
1482007128.29,0.000824,0.091317,-0.410692,0.007345,0.021264,0.008639,0.000820,-0.091190,-0.995833,0.014271,-0.011684,-0.010362,17.481480,13.327044,-39.763824,,,,,,
1482007128.34,0.001505,0.091235,-0.409640,-0.013881,-0.004022,0.023460,0.001499,-0.091109,-0.995840,0.000622,0.001326,-0.018137,17.564308,13.279791,-39.743130,,,,,,
1482007128.39,0.001902,0.091065,-0.408749,0.018523,0.034479,0.012050,0.001894,-0.090939,-0.995855,0.001219,0.000913,-0.014430,17.582254,13.285940,-39.733139,,,,,,
1482007128.44,0.003301,0.092020,-0.408182,-0.000167,-0.002916,0.025690,0.003287,-0.091890,-0.995764,0.012368,-0.005934,-0.016077,17.638174,13.242616,-39.722816,,,,,,
1482007128.48,0.004254,0.092656,-0.406817,0.017225,0.009019,0.035047,0.004235,-0.092523,-0.995701,0.013389,-0.007040,-0.018871,17.716454,13.191270,-39.705059,,,,,,
1482007128.53,0.005481,0.095542,-0.405390,0.055895,-0.001007,0.039432,0.005456,-0.095397,-0.995424,0.006262,-0.000169,-0.012220,17.745457,13.132745,-39.711510,,,,,,
1482007128.58,0.004503,0.097095,-0.403534,-0.007652,-0.010096,0.031827,0.004482,-0.096942,-0.995280,-0.012279,0.002903,0.018229,17.805399,12.980017,-39.734886,,,,,,
1482007128.63,0.003692,0.096588,-0.402123,-0.002580,-0.010086,0.014914,0.003675,-0.096438,-0.995332,0.002292,-0.000898,-0.014021,17.794449,12.943207,-39.751793,,,,,,
1482007128.68,0.003175,0.096586,-0.401471,-0.010080,-0.027003,0.024714,0.003160,-0.096436,-0.995334,0.005232,-0.009399,-0.008374,17.777710,12.932471,-39.762775,,,,,,
1482007128.72,0.003417,0.096413,-0.399935,0.035958,-0.014124,0.038529,0.003402,-0.096263,-0.995350,0.009416,0.004039,-0.025081,17.788992,12.918124,-39.762394,,,,,,
1482007128.77,0.003846,0.098237,-0.397722,0.023361,0.012582,0.051798,0.003828,-0.098079,-0.995171,0.004290,-0.004826,0.007455,17.845879,12.818579,-39.769115,,,,,,
1482007128.82,0.003493,0.098252,-0.394567,-0.004094,0.005532,0.058187,0.003476,-0.098094,-0.995171,-0.005918,0.000499,-0.003822,17.897694,12.751703,-39.767334,,,,,,
1482007128.87,0.001910,0.097885,-0.391811,0.007177,0.017562,0.042348,0.001901,-0.097729,-0.995211,-0.030389,0.005627,-0.004911,17.886747,12.725027,-39.780800,,,,,,
1482007128.92,0.000703,0.097724,-0.390811,0.011184,0.004351,-0.004579,0.000700,-0.097568,-0.995229,-0.009656,-0.002530,-0.012614,17.904655,12.694239,-39.782581,,,,,,
1482007128.96,-0.000066,0.098084,-0.390651,-0.000035,0.010493,-0.008079,-0.000066,-0.097926,-0.995194,-0.013896,-0.002980,-0.002289,17.834152,12.687822,-39.816284,,,,,,
1482007129.01,0.000079,0.098016,-0.391947,-0.012268,0.026520,-0.060964,0.000078,-0.097859,-0.995200,-0.010485,-0.000972,-0.007485,17.821630,12.690432,-39.821056,,,,,,
1482007129.06,0.002912,0.100588,-0.393327,0.072367,0.009901,-0.016188,0.002897,-0.100419,-0.994941,0.011706,-0.004134,-0.021844,17.893181,12.654522,-39.800396,,,,,,
1482007129.11,0.003537,0.102849,-0.393563,-0.031290,-0.011111,0.023695,0.003518,-0.102667,-0.994710,0.011359,-0.033639,0.025303,17.918240,12.532919,-39.827587,,,,,,
1482007129.16,0.003600,0.101275,-0.391824,-0.007779,0.018859,0.047341,0.003582,-0.101102,-0.994870,0.007115,-0.030109,-0.022998,17.935406,12.576407,-39.806145,,,,,,
1482007129.20,0.004749,0.102571,-0.387397,0.033027,0.046121,0.109304,0.004724,-0.102392,-0.994733,-0.009408,-0.015925,-0.044955,17.974457,12.556526,-39.794807,,,,,,
1482007129.25,0.004309,0.103687,-0.380525,0.019239,-0.021711,0.150715,0.004286,-0.103501,-0.994620,0.004289,-0.003570,-0.040124,18.125834,12.369398,-39.784752,,,,,,
1482007129.30,0.003580,0.105655,-0.371688,0.010109,-0.004923,0.221761,0.003560,-0.105459,-0.994417,0.017787,-0.010295,0.026537,18.180716,12.178697,-39.818527,,,,,,
1482007129.35,0.001873,0.105184,-0.360711,-0.013669,0.000080,0.235269,0.001862,-0.104991,-0.994471,0.017699,0.001582,0.022715,18.357468,11.898529,-39.822136,,,,,,
1482007129.40,0.001851,0.104021,-0.349179,-0.054901,0.008896,0.245360,0.001841,-0.103834,-0.994593,-0.007135,-0.006854,0.049952,18.534079,11.722055,-39.792656,,,,,,
1482007129.44,0.002626,0.098186,-0.337122,-0.171125,0.071608,0.263340,0.002614,-0.098029,-0.995180,-0.027623,-0.037241,0.040392,18.726786,11.682930,-39.713863,,,,,,
1482007129.49,0.002325,0.089965,-0.323408,-0.214819,0.031891,0.296568,0.002316,-0.089844,-0.995953,-0.014233,-0.033401,-0.074726,18.933029,11.738129,-39.599632,,,,,,
1482007129.54,0.000696,0.084304,-0.308880,-0.012777,-0.011147,0.317167,0.000694,-0.084204,-0.996448,0.000222,-0.017007,-0.109127,19.060946,11.802155,-39.519154,,,,,,
1482007129.59,0.000148,0.088393,-0.292482,0.069265,0.019433,0.362964,0.000147,-0.088278,-0.996096,0.000738,-0.018580,-0.019438,19.237082,11.549758,-39.508381,,,,,,
1482007129.64,0.000144,0.090326,-0.274603,0.010516,0.030778,0.382889,0.000143,-0.090203,-0.995923,-0.005179,-0.000816,0.000654,19.563829,10.907230,-39.530529,,,,,,
1482007129.68,0.000205,0.089963,-0.256356,-0.009376,0.004348,0.379641,0.000204,-0.089841,-0.995956,0.011759,0.004667,-0.005738,19.803768,10.537962,-39.511215,,,,,,
1482007129.73,-0.000497,0.089153,-0.238318,-0.004439,0.049133,0.370945,-0.000496,-0.089035,-0.996028,0.017051,-0.003235,0.003154,20.045229,10.226307,-39.471325,,,,,,
1482007129.78,0.000986,0.090809,-0.221218,0.008151,0.050306,0.351527,0.000981,-0.090685,-0.995879,-0.000890,-0.010069,0.014083,20.335855,9.856516,-39.416698,,,,,,
1482007129.83,0.001617,0.091805,-0.202262,-0.015835,0.051500,0.410798,0.001610,-0.091676,-0.995788,-0.010903,-0.003081,-0.006120,20.601818,9.400440,-39.389984,,,,,,
1482007129.88,0.002341,0.089009,-0.181295,-0.108276,0.017058,0.455420,0.002332,-0.088891,-0.996039,0.009555,-0.016105,-0.039209,20.790501,9.173756,-39.344269,,,,,,
,,,,,,,,,,,,,,,,48.210429,16.374545,178.995987,-1.000000,-1.000000,1482007129.86
1482007129.92,-0.000031,0.086861,-0.158710,0.046235,0.030125,0.478746,-0.000031,-0.086752,-0.996230,0.016633,-0.008035,-0.067292,21.039879,8.862514,-39.282993,,,,,,
,,,,,,,,,,,,,,,,48.210428,16.374546,178.999359,-1.000000,-1.000000,1482007129.88
1482007129.97,0.000137,0.090795,-0.135073,0.057375,0.038452,0.491812,0.000137,-0.090670,-0.995881,-0.005432,-0.007306,0.010438,21.368715,8.084570,-39.273296,,,,,,
1482007130.02,-0.000411,0.092856,-0.111416,0.027506,0.044809,0.478910,-0.000409,-0.092723,-0.995692,-0.017093,0.006602,0.000743,21.612015,7.481229,-39.259727,,,,,,
1482007130.07,-0.001518,0.093358,-0.089629,-0.010876,0.001701,0.442267,-0.001511,-0.093222,-0.995644,-0.025955,0.010291,0.015496,21.826305,6.964242,-39.236282,,,,,,
1482007130.12,-0.005104,0.090037,-0.068949,-0.050548,0.016739,0.387324,-0.005083,-0.089915,-0.995936,-0.028135,0.013377,0.007945,21.896330,6.613282,-39.257984,,,,,,
1482007130.16,-0.006755,0.086572,-0.051417,-0.024161,0.017859,0.344872,-0.006730,-0.086464,-0.996232,-0.006362,0.014443,-0.016646,21.990841,6.403707,-39.239899,,,,,,
1482007130.21,-0.004875,0.084939,-0.035692,-0.015432,0.019042,0.338739,-0.004857,-0.084837,-0.996383,0.013600,0.002638,0.000381,22.139818,6.179753,-39.192005,,,,,,
1482007130.26,-0.003372,0.084561,-0.019481,-0.024193,0.009433,0.348517,-0.003360,-0.084460,-0.996421,0.023669,-0.005276,-0.002358,22.320787,5.853661,-39.139381,,,,,,
1482007130.31,-0.001546,0.084041,-0.002165,-0.076680,-0.022843,0.384210,-0.001541,-0.083942,-0.996469,0.002456,-0.000927,0.023355,22.648975,5.363341,-39.020927,,,,,,
1482007130.36,-0.002066,0.077484,0.016549,-0.083065,0.020777,0.387690,-0.002060,-0.077407,-0.996997,0.000672,0.029174,-0.014584,22.793955,5.086074,-38.973598,,,,,,
1482007130.40,-0.003667,0.073108,0.033737,-0.031693,-0.001326,0.343827,-0.003657,-0.073043,-0.997322,-0.006795,0.006758,0.024315,22.884581,4.959995,-38.936726,,,,,,
1482007130.45,-0.004244,0.069105,0.050247,-0.133955,0.004444,0.339033,-0.004234,-0.069050,-0.997604,0.000969,-0.012585,0.023788,22.983555,4.692488,-38.911579,,,,,,
1482007130.50,-0.006064,0.063315,0.065333,-0.141159,-0.030445,0.301971,-0.006052,-0.063273,-0.997978,0.025842,-0.026708,-0.012612,23.047628,4.585595,-38.886417,,,,,,
1482007130.55,-0.006934,0.055476,0.077743,-0.183101,-0.012758,0.204904,-0.006923,-0.055448,-0.998438,0.040157,-0.044101,-0.046179,23.067513,4.521383,-38.882149,,,,,,
1482007130.60,-0.001448,0.053987,0.083776,-0.086534,0.054717,0.090271,-0.001446,-0.053960,-0.998542,0.069394,-0.094019,-0.108407,23.110075,4.622491,-38.844963,,,,,,
1482007130.64,0.002332,0.058661,0.085957,0.178253,0.068389,0.013542,0.002328,-0.058628,-0.998277,0.044532,-0.104855,-0.032118,23.475861,4.316014,-38.660446,,,,,,
1482007130.69,0.001699,0.067275,0.086449,0.009999,0.135318,-0.021988,0.001696,-0.067224,-0.997736,-0.077089,-0.022437,0.024577,23.644716,4.055386,-38.585690,,,,,,
1482007130.74,0.006333,0.064887,0.082888,-0.060339,0.016444,-0.118070,0.006320,-0.064842,-0.997876,-0.093478,0.059456,-0.069904,23.634218,4.012820,-38.596569,,,,,,
1482007130.79,0.008448,0.069985,0.073973,0.238248,0.066283,-0.233899,0.008427,-0.069928,-0.997516,-0.086094,0.092480,-0.052197,23.646065,4.118206,-38.578209,,,,,,
1482007130.84,0.009005,0.077472,0.062946,0.027608,-0.072397,-0.204192,0.008978,-0.077394,-0.996960,-0.012732,-0.024626,0.071789,23.678318,4.007617,-38.570072,,,,,,
1482007130.88,0.005600,0.074822,0.056674,-0.082773,-0.070652,-0.084889,0.005584,-0.074752,-0.997187,0.005204,-0.047288,-0.000967,23.518330,4.150365,-38.652771,,,,,,
1482007130.93,0.003122,0.072015,0.052764,-0.010409,-0.032477,-0.105212,0.003114,-0.071952,-0.997403,-0.052354,0.013648,-0.004504,23.371765,4.402403,-38.713737,,,,,,
1482007130.98,0.002538,0.071192,0.043303,-0.035838,-0.019571,-0.257829,0.002531,-0.071132,-0.997464,-0.069853,0.002666,0.002224,23.237703,4.665956,-38.763538,,,,,,
1482007131.03,0.001542,0.069447,0.030456,-0.045766,-0.060675,-0.250293,0.001538,-0.069391,-0.997588,-0.027081,-0.036566,-0.024506,23.118650,5.026357,-38.789661,,,,,,
1482007131.08,-0.003399,0.070399,0.019917,0.010288,-0.091599,-0.215917,-0.003390,-0.070341,-0.997517,-0.023481,-0.023287,-0.038051,22.853844,5.260365,-38.915352,,,,,,
1482007131.12,-0.006644,0.070912,0.009071,-0.012213,-0.045356,-0.225488,-0.006628,-0.070852,-0.997465,-0.038676,-0.013285,0.025968,22.624628,5.479477,-39.018913,,,,,,
1482007131.17,-0.010931,0.069827,-0.003124,-0.056784,-0.020549,-0.297259,-0.010904,-0.069771,-0.997503,-0.034918,-0.005486,0.009802,22.344704,5.765838,-39.138771,,,,,,
1482007131.22,-0.009669,0.067607,-0.017878,-0.026875,0.009481,-0.304987,-0.009647,-0.067556,-0.997669,-0.015621,-0.002741,-0.024777,22.275829,6.054791,-39.134399,,,,,,
1482007131.27,-0.008857,0.070455,-0.032568,-0.028038,-0.013534,-0.297650,-0.008835,-0.070397,-0.997480,0.018982,-0.028983,-0.006991,22.194063,6.449557,-39.117786,,,,,,
1482007131.32,-0.009255,0.068410,-0.044231,-0.037233,-0.021064,-0.204818,-0.009233,-0.068357,-0.997618,0.032701,-0.024645,-0.024309,22.037155,6.772192,-39.151955,,,,,,
1482007131.36,-0.005660,0.068624,-0.052101,0.001003,-0.002257,-0.124754,-0.005647,-0.068571,-0.997630,0.041246,-0.015566,-0.022069,21.923386,7.024186,-39.171421,,,,,,
1482007131.41,-0.005781,0.068293,-0.057275,-0.020441,0.013523,-0.084844,-0.005768,-0.068240,-0.997652,0.037842,-0.035276,0.004183,22.025398,7.104147,-39.099709,,,,,,
1482007131.46,0.001917,0.072677,-0.060362,0.014343,0.027704,-0.048051,0.001912,-0.072613,-0.997358,0.006618,-0.004566,-0.028139,22.257187,7.050469,-38.977974,,,,,,
1482007131.51,0.002647,0.075120,-0.062118,0.019237,0.010602,-0.019138,0.002640,-0.075049,-0.997176,-0.000046,-0.010614,0.012511,22.302620,7.020809,-38.957355,,,,,,
1482007131.56,0.003684,0.075897,-0.062262,-0.050767,-0.007084,0.025133,0.003673,-0.075824,-0.997114,0.006825,-0.018978,-0.007326,22.310539,6.979413,-38.960258,,,,,,
1482007131.60,0.002410,0.074520,-0.059998,-0.007221,-0.012409,0.049905,0.002404,-0.074451,-0.997222,-0.001473,-0.007824,-0.025102,22.330364,6.971898,-38.950245,,,,,,
1482007131.65,-0.000815,0.076219,-0.056463,-0.052205,-0.004878,0.075733,-0.000812,-0.076145,-0.997096,-0.027844,-0.008724,0.000942,22.272806,6.841400,-39.006302,,,,,,
1482007131.70,-0.003766,0.074032,-0.053544,-0.040753,-0.024260,0.040801,-0.003755,-0.073965,-0.997254,-0.034575,-0.004908,-0.021743,22.233873,6.831061,-39.030315,,,,,,
1482007131.75,-0.006871,0.073315,-0.052129,-0.028114,-0.023077,0.009364,-0.006852,-0.073249,-0.997290,-0.027449,-0.009789,-0.003274,22.111502,6.831187,-39.099754,,,,,,
1482007131.80,-0.007014,0.071501,-0.051781,0.003062,0.003319,-0.003172,-0.006996,-0.071440,-0.997420,-0.008598,0.008345,-0.044969,22.045162,6.858325,-39.132446,,,,,,
1482007131.84,-0.005766,0.073976,-0.053197,0.064272,0.007708,-0.023207,-0.005751,-0.073909,-0.997248,0.020109,-0.017095,0.015239,22.021635,6.900563,-39.138268,,,,,,
1482007131.89,-0.005641,0.074181,-0.052436,-0.053358,0.010899,0.050438,-0.005626,-0.074113,-0.997234,0.022944,-0.035018,0.035061,22.068193,6.791816,-39.131065,,,,,,
1482007131.94,-0.004816,0.072956,-0.049279,-0.038510,0.003401,0.080379,-0.004803,-0.072891,-0.997328,0.003933,-0.014175,-0.021318,22.110058,6.815731,-39.103264,,,,,,
1482007131.99,-0.005296,0.071760,-0.045365,-0.009813,-0.015036,0.086133,-0.005283,-0.071699,-0.997412,0.003253,-0.016268,-0.016305,22.154289,6.748292,-39.089928,,,,,,
1482007132.04,-0.005663,0.071477,-0.041374,-0.029804,0.032390,0.074125,-0.005649,-0.071416,-0.997431,-0.006208,-0.009547,-0.001227,22.190207,6.674847,-39.082165,,,,,,
1482007132.08,-0.005528,0.070361,-0.037828,-0.008512,0.012853,0.065533,-0.005514,-0.070303,-0.997510,-0.006312,-0.001490,-0.000597,22.223984,6.635197,-39.069717,,,,,,
1482007132.13,-0.006713,0.071832,-0.035659,-0.070574,-0.011905,0.029098,-0.006696,-0.071770,-0.997399,0.004239,-0.031074,0.030876,22.192968,6.532619,-39.104618,,,,,,
1482007132.18,-0.005228,0.067995,-0.031845,-0.123441,0.040341,0.107732,-0.005215,-0.067943,-0.997676,0.007932,-0.035573,-0.016363,22.210390,6.572528,-39.088039,,,,,,
1482007132.23,-0.004945,0.064006,-0.026965,-0.107068,-0.004581,0.100522,-0.004934,-0.063963,-0.997940,-0.009607,-0.009753,-0.030197,22.319166,6.570959,-39.026291,,,,,,
1482007132.28,-0.004414,0.059721,-0.021679,-0.056258,0.056573,0.138132,-0.004407,-0.059686,-0.998208,-0.018360,-0.003424,-0.015358,22.380459,6.676781,-38.973194,,,,,,
1482007132.32,0.001224,0.056946,-0.013637,-0.090187,0.120936,0.163529,0.001222,-0.056915,-0.998378,-0.008302,-0.007858,-0.040349,22.632444,6.599929,-38.840542,,,,,,
1482007132.37,0.001227,0.054634,-0.007194,-0.050083,0.045510,0.162190,0.001225,-0.054607,-0.998507,-0.008443,-0.014637,0.024768,22.755322,6.600029,-38.768658,,,,,,
1482007132.42,-0.002694,0.052043,0.002367,-0.107035,-0.147742,0.163810,-0.002691,-0.052019,-0.998642,-0.047007,0.002382,-0.003219,22.812765,6.445641,-38.760876,,,,,,
1482007132.47,-0.008563,0.048434,0.008135,-0.073313,-0.069190,0.122105,-0.008553,-0.048416,-0.998791,-0.041511,-0.012269,0.016354,22.576910,6.434616,-38.900551,,,,,,
1482007132.52,-0.008170,0.046665,0.014516,-0.058959,0.114488,0.171635,-0.008161,-0.046648,-0.998878,-0.029070,-0.017775,-0.012185,22.520262,6.447226,-38.931286,,,,,,
1482007132.56,-0.014741,0.044305,0.017086,-0.015749,-0.314886,-0.044752,-0.014726,-0.044290,-0.998910,-0.051635,0.027475,-0.090628,22.608545,6.348893,-38.896267,,,,,,
1482007132.61,-0.020252,0.046583,0.019318,-0.028937,0.211193,0.122692,-0.020228,-0.046566,-0.998710,-0.049291,-0.002292,0.008476,22.191170,6.346667,-39.136250,,,,,,
1482007132.66,-0.020955,0.046343,0.018095,0.087998,-0.175084,-0.138131,-0.020931,-0.046326,-0.998707,-0.039768,0.051026,-0.109951,22.184240,6.286640,-39.149864,,,,,,
1482007132.71,-0.030006,0.053337,0.013993,0.064874,-0.101456,-0.033462,-0.029959,-0.053312,-0.998128,-0.020868,-0.019091,0.054998,21.844294,6.185702,-39.356552,,,,,,
1482007132.76,-0.032511,0.053188,0.015159,-0.076690,-0.078821,0.077699,-0.032460,-0.053163,-0.998058,0.012669,-0.053572,0.026150,21.650934,6.075731,-39.480331,,,,,,
1482007132.80,-0.033405,0.053433,0.020937,-0.059739,0.007919,0.158891,-0.033351,-0.053408,-0.998016,0.019359,-0.055937,-0.001008,21.583313,6.121686,-39.510250,,,,,,
1482007132.85,-0.033143,0.050929,0.028409,-0.070919,0.006839,0.150607,-0.033094,-0.050907,-0.998155,0.009977,-0.071713,-0.010466,21.676735,5.899139,-39.492954,,,,,,
1482007132.90,-0.028649,0.050617,0.037823,-0.143697,0.112631,0.212335,-0.028609,-0.050596,-0.998309,0.037657,-0.071993,-0.086957,21.749739,5.869637,-39.457195,,,,,,
1482007132.95,-0.025785,0.046260,0.044757,-0.010718,0.036822,0.095509,-0.025754,-0.046244,-0.998598,0.048429,-0.095343,-0.144377,22.103405,5.689423,-39.286690,,,,,,
1482007133.00,-0.023418,0.051329,0.047277,0.156795,0.027117,0.026098,-0.023385,-0.051306,-0.998409,0.069436,-0.092889,-0.043980,22.220358,5.492189,-39.248768,,,,,,
1482007133.04,-0.018041,0.061347,0.046888,0.254059,0.177810,-0.032369,-0.018006,-0.061308,-0.997956,0.045609,-0.071947,0.023835,22.369686,5.142237,-39.211334,,,,,,
1482007133.09,-0.007612,0.080711,0.042356,0.262257,0.088487,-0.110344,-0.007587,-0.080623,-0.996716,0.064991,-0.078923,0.039135,22.775721,4.479034,-39.058659,,,,,,
1482007133.14,-0.006273,0.090456,0.037485,0.146434,-0.009790,-0.102449,-0.006248,-0.090333,-0.995892,0.061866,-0.063095,0.065426,22.835257,4.247327,-39.049782,,,,,,
1482007133.19,-0.001729,0.101248,0.031386,0.162985,0.042448,-0.171563,-0.001720,-0.101075,-0.994877,0.027553,-0.021072,0.018605,22.805208,4.079696,-39.085197,,,,,,
1482007133.24,-0.000034,0.110256,0.018645,0.108049,-0.116264,-0.335053,-0.000033,-0.110032,-0.993928,0.042804,-0.013747,0.004304,22.989592,3.775208,-39.007702,,,,,,
1482007133.28,-0.003599,0.115327,0.001036,0.174513,-0.111712,-0.406931,-0.003575,-0.115071,-0.993351,0.022054,-0.001170,-0.041455,22.633284,3.952859,-39.198006,,,,,,
1482007133.33,-0.005632,0.122834,-0.021650,0.078882,-0.086314,-0.496155,-0.005589,-0.122526,-0.992450,0.050221,-0.037753,-0.028089,22.420040,4.126159,-39.302555,,,,,,
1482007133.38,-0.008438,0.124244,-0.042063,0.039603,-0.071857,-0.383800,-0.008372,-0.123925,-0.992256,-0.003941,-0.036399,-0.056435,22.116434,4.530879,-39.429790,,,,,,
1482007133.43,-0.006164,0.125141,-0.058749,-0.066773,-0.003264,-0.343097,-0.006116,-0.124814,-0.992161,-0.048114,0.005857,-0.035076,22.008154,4.837101,-39.453995,,,,,,
1482007133.48,-0.008582,0.116999,-0.077125,-0.028795,-0.023822,-0.456573,-0.008523,-0.116733,-0.993127,-0.039435,0.083804,-0.080543,21.788221,5.349994,-39.509811,,,,,,
1482007133.52,-0.007516,0.115603,-0.102871,-0.057891,-0.081161,-0.594372,-0.007466,-0.115345,-0.993297,-0.004466,0.083043,-0.011296,21.640375,5.902626,-39.512371,,,,,,
1482007133.57,-0.008611,0.114097,-0.139108,0.073036,0.064064,-0.889148,-0.008555,-0.113849,-0.993461,-0.059362,0.060260,0.089347,21.260098,6.637911,-39.602024,,,,,,
1482007133.62,0.011599,0.125825,-0.170344,0.234384,0.447064,-0.413848,0.011507,-0.125494,-0.992028,0.012511,-0.048701,0.141549,21.307325,7.314648,-39.457165,,,,,,
1482007133.67,0.029848,0.126507,-0.180393,-0.208637,0.230448,-0.035477,0.029605,-0.126170,-0.991567,-0.072863,-0.042028,0.104634,21.950182,7.405914,-39.086006,,,,,,
1482007133.72,0.033606,0.102141,-0.180711,-0.570067,-0.031693,0.020727,0.033424,-0.101964,-0.994226,-0.066978,0.039449,-0.123419,22.199207,8.220371,-38.781376,,,,,,
1482007133.76,0.026950,0.089099,-0.179265,-0.076957,-0.153388,-0.013627,0.026840,-0.088981,-0.995672,-0.108917,0.049018,-0.058253,22.012337,8.906279,-38.736408,,,,,,
1482007133.81,0.020276,0.086643,-0.180375,0.000469,-0.155221,-0.031417,0.020198,-0.086535,-0.996044,-0.083034,-0.006132,-0.007420,21.853437,9.009888,-38.802361,,,,,,
1482007133.86,0.008410,0.093791,-0.177958,-0.068830,0.011975,0.054191,0.008373,-0.093654,-0.995570,-0.066189,-0.045598,0.041346,21.622561,9.051014,-38.921951,,,,,,
1482007133.91,0.008735,0.089940,-0.174700,-0.042785,0.032250,0.074240,0.008700,-0.089819,-0.995920,-0.042529,-0.023401,-0.033316,21.276333,8.812234,-39.166775,,,,,,
1482007133.96,0.003099,0.090925,-0.169308,0.015541,-0.004961,0.147181,0.003086,-0.090800,-0.995864,-0.045246,-0.007711,-0.017792,21.369978,8.748055,-39.130161,,,,,,
1482007134.00,0.005353,0.092862,-0.162096,0.067575,0.096180,0.172553,0.005330,-0.092728,-0.995677,-0.043019,0.008317,-0.020894,21.256369,8.505394,-39.245373,,,,,,
1482007134.05,0.004349,0.095153,-0.152141,0.015030,0.021308,0.236155,0.004330,-0.095009,-0.995467,-0.017391,-0.006172,-0.017274,21.454884,8.223339,-39.197433,,,,,,
1482007134.10,0.007248,0.100348,-0.137448,0.071276,0.177585,0.391228,0.007211,-0.100179,-0.994943,0.001196,-0.036997,-0.035239,21.574192,7.744785,-39.229412,,,,,,
1482007134.15,0.013095,0.096084,-0.117521,-0.164408,0.089986,0.418595,0.013034,-0.095937,-0.995302,0.070905,0.042302,-0.226729,21.893730,7.440150,-39.111160,,,,,,
1482007134.20,0.008938,0.098051,-0.096600,0.198718,-0.027107,0.433958,0.008895,-0.097894,-0.995157,0.023331,0.055139,-0.119879,22.181339,7.224446,-38.989353,,,,,,
1482007134.24,0.014166,0.103764,-0.078096,0.103875,0.104763,0.379121,0.014090,-0.103578,-0.994522,0.063394,0.030458,-0.001389,22.524572,6.343367,-38.945854,,,,,,
1482007134.29,0.018879,0.114233,-0.060479,0.320834,0.120973,0.384816,0.018755,-0.113984,-0.993306,0.087416,0.032625,-0.028072,22.875916,5.629200,-38.850723,,,,,,
1482007134.34,0.023718,0.120280,-0.042237,-0.072036,0.009381,0.425026,0.023544,-0.119991,-0.992496,0.008179,0.038509,0.067294,23.294878,4.849531,-38.706650,,,,,,
1482007134.39,0.027374,0.120384,-0.027812,0.079638,0.144390,0.222727,0.027173,-0.120093,-0.992391,0.016467,0.032843,-0.029078,23.519470,4.525758,-38.609924,,,,,,
1482007134.44,0.039120,0.129272,-0.018398,0.025007,0.073578,0.220066,0.038784,-0.128912,-0.990897,0.046894,-0.043360,0.068885,23.730812,4.254614,-38.511311,,,,,,
1482007134.48,0.042423,0.131631,-0.007550,0.066201,0.108401,0.198937,0.042044,-0.131252,-0.990457,0.005045,-0.017369,0.079477,24.220369,3.737717,-38.259342,,,,,,
1482007134.53,0.048495,0.138639,-0.000133,-0.040712,0.042921,0.172848,0.048011,-0.138195,-0.989241,0.016518,-0.032002,0.124144,24.442593,3.389931,-38.150257,,,,,,
1482007134.58,0.046011,0.129478,0.008422,-0.231043,-0.059305,0.119083,0.045610,-0.129117,-0.990580,-0.009568,-0.008899,0.042521,24.638479,3.204480,-38.040123,,,,,,
1482007134.63,0.043052,0.121408,0.011198,-0.178096,-0.043606,0.004012,0.042722,-0.121110,-0.991719,0.012408,-0.053573,0.034078,24.544846,3.453463,-38.078842,,,,,,
1482007134.68,0.043841,0.118448,0.010764,-0.223921,-0.055128,-0.029078,0.043520,-0.118171,-0.992039,0.021620,-0.080391,0.017552,24.573885,3.548766,-38.051342,,,,,,
1482007134.72,0.042145,0.112021,0.007465,-0.026442,-0.055375,-0.108529,0.041868,-0.111787,-0.992850,0.012499,-0.072402,-0.055871,24.485773,3.929588,-38.070717,,,,,,
1482007134.77,0.039204,0.118329,0.002259,-0.026197,-0.170446,-0.082711,0.038920,-0.118053,-0.992244,0.033391,-0.086842,-0.061055,24.460598,3.755452,-38.104462,,,,,,
1482007134.82,0.030735,0.121168,-0.002188,0.119870,-0.169222,-0.109782,0.030504,-0.120872,-0.992199,0.001768,-0.063989,-0.077884,24.140707,3.871339,-38.296387,,,,,,
1482007134.87,0.021590,0.131037,-0.008814,0.104233,-0.207514,-0.190039,0.021403,-0.130662,-0.991196,-0.037120,-0.029326,-0.061432,23.779472,3.619651,-38.546192,,,,,,
1482007134.92,0.018187,0.130978,-0.019272,-0.117008,0.037844,-0.200516,0.018030,-0.130604,-0.991271,-0.054544,-0.088787,-0.016740,23.313288,3.741827,-38.818340,,,,,,
1482007134.96,0.018962,0.123993,-0.027572,-0.254146,0.040203,-0.193954,0.018815,-0.123676,-0.992144,-0.021653,0.034976,-0.194104,23.257635,4.133709,-38.811966,,,,,,
1482007135.01,0.021584,0.128264,-0.040563,0.472542,0.042786,-0.346097,0.021405,-0.127913,-0.991554,-0.046201,0.111372,-0.182503,23.250042,4.508276,-38.774799,,,,,,
1482007135.06,0.025283,0.157245,-0.058958,0.584583,0.048910,-0.307775,0.024968,-0.156598,-0.987347,-0.018148,0.031918,0.085186,23.220289,3.849263,-38.863548,,,,,,
1482007135.11,0.033671,0.177790,-0.068974,0.330132,0.206691,-0.130866,0.033134,-0.176855,-0.983679,-0.085838,0.048361,0.049673,23.281256,3.384003,-38.870373,,,,,,
1482007135.16,0.043534,0.188233,-0.075656,0.178324,0.070065,-0.142813,0.042752,-0.187123,-0.981406,-0.038479,0.090459,-0.096612,23.628294,2.928065,-38.697601,,,,,,
1482007135.20,0.042439,0.190853,-0.081491,0.457193,0.090349,-0.092145,0.041656,-0.189697,-0.980959,-0.053542,0.084152,-0.012617,23.639475,3.155909,-38.672852,,,,,,
1482007135.25,0.046612,0.209547,-0.083823,0.253661,-0.024414,-0.000046,0.045576,-0.208017,-0.977063,-0.070097,0.066034,0.046109,23.811281,2.261647,-38.630066,,,,,,
1482007135.30,0.036643,0.214591,-0.082234,0.189847,-0.068893,0.039507,0.035794,-0.212948,-0.976408,-0.055570,0.050381,0.067777,23.467571,2.005053,-38.853920,,,,,,
1482007135.35,0.033418,0.219917,-0.078296,-0.042455,-0.116766,0.119609,0.032607,-0.218148,-0.975371,-0.025085,0.029351,0.064070,23.387863,1.641599,-38.918983,,,,,,
1482007135.40,0.021733,0.209662,-0.070434,-0.074158,-0.073183,0.192023,0.021255,-0.208130,-0.977870,-0.051300,0.051529,0.007503,23.011253,1.860554,-39.133041,,,,,,
1482007135.44,0.026524,0.212853,-0.060642,0.035136,0.199555,0.167744,0.025922,-0.211249,-0.977088,-0.068631,0.040793,0.027870,23.047653,1.712299,-39.118382,,,,,,
1482007135.49,0.026473,0.208090,-0.054294,-0.132142,0.045360,0.017662,0.025899,-0.206591,-0.978085,-0.074284,-0.004087,-0.038227,23.258467,1.469698,-39.003304,,,,,,
1482007135.54,0.037567,0.205861,-0.055476,-0.045253,0.323181,-0.017199,0.036765,-0.204410,-0.978195,-0.022300,-0.078229,-0.042542,23.600189,1.664523,-38.789619,,,,,,
1482007135.59,0.046020,0.203313,-0.058459,-0.135281,0.129408,-0.118714,0.045056,-0.201915,-0.978366,-0.066632,-0.031193,-0.086362,23.983294,1.760702,-38.549652,,,,,,
1482007135.64,0.062494,0.200938,-0.069152,0.032347,0.365944,-0.313257,0.061197,-0.199588,-0.977967,-0.072183,0.003070,-0.098678,24.415348,2.107231,-38.259960,,,,,,
1482007135.68,0.078374,0.207613,-0.088046,0.355150,0.201311,-0.439213,0.076612,-0.206125,-0.975522,-0.055860,0.011957,-0.065036,24.908796,2.337358,-37.927071,,,,,,
1482007135.73,0.091476,0.221207,-0.113285,0.240748,0.293456,-0.548946,0.089122,-0.219407,-0.971554,-0.084575,0.018205,0.086071,25.112865,2.272041,-37.796246,,,,,,
1482007135.78,0.104022,0.224139,-0.141356,0.060708,-0.024479,-0.572941,0.101238,-0.222267,-0.969716,-0.104137,0.093193,0.015385,25.377037,2.480227,-37.606232,,,,,,
1482007135.83,0.106742,0.220802,-0.175748,0.047846,0.068398,-0.792242,0.103953,-0.219012,-0.970169,-0.084544,0.109026,0.116287,25.152506,3.202096,-37.702419,,,,,,
1482007135.88,0.123939,0.218679,-0.215479,0.146489,0.140354,-0.843137,0.120678,-0.216941,-0.968697,-0.035488,0.137397,-0.010292,25.234764,4.344709,-37.532711,,,,,,
1482007135.92,0.127328,0.216779,-0.255497,-0.122473,-0.300740,-0.745099,0.124012,-0.215085,-0.968690,0.024990,0.132107,0.082795,23.915684,2.278711,-40.879009,,,,,,
,,,,,,,,,,,,,,,,48.210429,16.374545,178.999588,-1.000000,-1.000000,1482007135.92
1482007135.97,0.111128,0.192421,-0.281515,-0.582277,-0.564006,-0.478247,0.108853,-0.191236,-0.975490,-0.010876,0.043562,-0.055242,23.056673,3.662486,-41.270115,,,,,,
,,,,,,,,,,,,,,,,48.210430,16.374545,178.999695,-1.000000,-1.000000,1482007135.93
1482007136.02,0.074144,0.165824,-0.293418,-0.483162,-1.045563,-0.148602,0.073060,-0.165065,-0.983573,0.131621,-0.015873,-0.165979,21.559515,5.152331,-41.915234,,,,,,
1482007136.07,0.013355,0.144254,-0.294975,-0.308296,-1.334327,-0.075967,0.013216,-0.143754,-0.989525,0.128706,-0.048674,-0.058006,20.018066,5.883651,-42.578232,,,,,,
1482007136.12,-0.021202,0.153775,-0.309316,0.469597,-0.360546,-0.405406,-0.020950,-0.153170,-0.987978,0.178787,-0.165007,0.088548,17.460388,6.493891,-43.602875,,,,,,
1482007136.16,-0.020884,0.165249,-0.329680,-0.108011,0.141984,-0.350133,-0.020598,-0.164498,-0.986162,0.218153,-0.267265,0.063494,16.530621,5.980316,-44.036583,,,,,,
1482007136.21,-0.014007,0.154562,-0.345802,-0.132942,-0.031186,-0.280409,-0.013840,-0.153948,-0.987982,0.165375,-0.159620,-0.316034,16.644358,6.684532,-43.892239,,,,,,
1482007136.26,-0.028439,0.157235,-0.356410,0.173396,-0.496579,-0.232630,-0.028085,-0.156588,-0.987265,0.032983,-0.082486,-0.232859,16.086597,6.904073,-44.065876,,,,,,
1482007136.31,-0.047653,0.180671,-0.367326,0.710503,-0.290706,-0.229332,-0.046859,-0.179689,-0.982607,0.025894,-0.045195,-0.048369,14.996554,6.320185,-44.535431,,,,,,
1482007136.36,-0.057935,0.204594,-0.379790,0.100019,-0.279929,-0.363946,-0.056695,-0.203170,-0.977501,-0.020728,-0.037797,0.151390,14.342287,5.202679,-44.894066,,,,,,
1482007136.40,-0.063831,0.201309,-0.397208,-0.136374,-0.041845,-0.335686,-0.062500,-0.199952,-0.977810,0.007751,0.061570,0.002926,13.861517,5.337900,-45.029003,,,,,,
1482007136.45,-0.064275,0.184736,-0.419705,0.203823,0.048245,-0.625458,-0.063138,-0.183687,-0.980955,-0.077945,0.089937,0.018308,13.623201,5.808290,-45.043514,,,,,,
1482007136.50,-0.052974,0.201643,-0.447905,0.298843,0.113354,-0.456003,-0.051876,-0.200279,-0.978365,-0.030460,-0.042290,0.121263,13.382394,6.480929,-45.023941,,,,,,
1482007136.55,-0.049462,0.208286,-0.463926,-0.072201,-0.082649,-0.256754,-0.048373,-0.206783,-0.977190,-0.088499,-0.015507,0.178881,13.370643,6.291149,-45.054344,,,,,,
1482007136.60,-0.052299,0.190128,-0.473577,-0.531413,-0.083568,-0.213816,-0.051333,-0.188984,-0.980637,-0.124784,0.068303,0.105103,13.102169,7.021091,-45.025368,,,,,,
1482007136.64,-0.065533,0.165650,-0.492612,-0.393897,-0.164985,-0.505203,-0.064590,-0.164893,-0.984194,-0.061524,-0.056268,0.008669,12.288561,8.408601,-45.017029,,,,,,
1482007136.69,-0.067627,0.153029,-0.512871,-0.183059,-0.045257,-0.324180,-0.066786,-0.152432,-0.986055,-0.035555,-0.107882,0.007829,11.808153,9.385675,-44.952454,,,,,,
1482007136.74,-0.072611,0.159786,-0.526266,-0.190688,-0.145038,-0.216608,-0.071623,-0.159107,-0.984660,0.011229,-0.081112,-0.019429,11.648028,9.727001,-44.921658,,,,,,
1482007136.79,-0.085104,0.147161,-0.532945,-0.277323,-0.290195,-0.045150,-0.084082,-0.146631,-0.985611,0.024771,-0.042517,-0.015335,11.032325,9.688526,-45.085102,,,,,,
1482007136.84,-0.088827,0.144491,-0.536411,0.060455,-0.009620,-0.118002,-0.087786,-0.143989,-0.985678,-0.001066,0.027122,-0.029398,10.427558,10.252131,-45.104389,,,,,,
1482007136.88,-0.092030,0.143353,-0.541599,-0.038437,0.000701,-0.053044,-0.090958,-0.142862,-0.985554,0.025680,-0.017401,0.020451,10.199199,10.329671,-45.138901,,,,,,
1482007136.93,-0.088985,0.143375,-0.544031,-0.029750,0.021206,-0.053246,-0.087955,-0.142884,-0.985824,0.058796,-0.024261,-0.088945,10.274892,10.375248,-45.111279,,,,,,
1482007136.98,-0.076739,0.140486,-0.544386,-0.131457,0.050811,0.086222,-0.075908,-0.140025,-0.987234,0.083141,-0.012136,-0.076975,10.797234,10.469529,-44.967266,,,,,,
1482007137.03,-0.073625,0.136629,-0.541693,-0.012947,0.097063,0.062889,-0.072873,-0.136204,-0.987997,0.010556,0.054524,-0.061945,10.966911,10.652564,-44.883137,,,,,,
1482007137.08,-0.070064,0.134590,-0.538447,0.180502,0.028904,0.036807,-0.069373,-0.134184,-0.988525,-0.014230,0.061598,0.013489,11.145790,10.957050,-44.765617,,,,,,
1482007137.12,-0.071730,0.125237,-0.537414,-0.460895,0.039246,0.091550,-0.071107,-0.124910,-0.989617,-0.063002,0.025804,0.115029,11.201122,10.690048,-44.816338,,,,,,
1482007137.17,-0.059868,0.100020,-0.544086,-0.700131,0.089436,-0.457042,-0.059534,-0.099854,-0.993219,-0.145865,0.117935,-0.084219,11.598804,11.921616,-44.402580,,,,,,
1482007137.22,-0.056384,0.085384,-0.573216,-0.028684,0.143177,-0.560601,-0.056149,-0.085280,-0.994774,0.053814,-0.064744,-0.097725,11.312925,13.237926,-44.102394,,,,,,
1482007137.27,-0.049344,0.091138,-0.598465,0.176988,0.076986,-0.508642,-0.049119,-0.091012,-0.994638,0.028840,-0.134528,0.017312,11.205418,13.441849,-44.068146,,,,,,
1482007137.32,-0.040461,0.112004,-0.617456,-0.166252,-0.001581,-0.386162,-0.040197,-0.111770,-0.992921,-0.006510,-0.135255,0.186387,11.240392,12.687658,-44.282310,,,,,,
1482007137.36,-0.049141,0.100372,-0.642754,0.231502,0.009030,-0.607742,-0.048874,-0.100203,-0.993766,-0.013810,-0.019975,-0.180886,10.796049,13.339216,-44.201321,,,,,,
1482007137.41,-0.042261,0.117385,-0.670068,0.092695,-0.059114,-0.509430,-0.041958,-0.117116,-0.992232,0.118328,-0.133342,-0.002199,10.337622,13.332361,-44.312840,,,,,,
1482007137.46,-0.031341,0.134193,-0.701937,0.588589,0.342009,-0.818294,-0.031054,-0.133791,-0.990523,-0.021207,-0.033064,-0.111757,10.021525,13.187204,-44.428738,,,,,,
1482007137.51,-0.015414,0.161512,-0.738729,0.541201,0.084152,-0.711789,-0.015213,-0.160811,-0.986868,0.068863,-0.038835,-0.100565,10.129218,12.184869,-44.689754,,,,,,
1482007137.56,-0.001074,0.189403,-0.775954,0.536299,0.302528,-0.819878,-0.001055,-0.188272,-0.982116,-0.031202,0.048426,0.062286,9.969885,11.314741,-44.953575,,,,,,
1482007137.60,0.018676,0.210935,-0.820612,0.424000,0.064302,-0.952202,0.018261,-0.209375,-0.977665,0.040638,0.051172,-0.022732,10.095987,10.691168,-45.077892,,,,,,
1482007137.65,0.029629,0.225500,-0.862053,0.210975,0.083671,-0.769134,0.028874,-0.223594,-0.974255,-0.011586,0.052161,0.082714,9.747625,10.308661,-45.243359,,,,,,
1482007137.70,0.040169,0.227034,-0.897784,0.248254,0.053037,-0.752577,0.039127,-0.225089,-0.973552,-0.024113,0.115958,-0.028721,9.650931,10.249302,-45.277561,,,,,,
1482007137.75,0.044851,0.232276,-0.928902,-0.059426,-0.127944,-0.512044,0.043631,-0.230193,-0.972166,0.005517,0.034346,0.079451,9.291056,10.397429,-45.319046,,,,,,
1482007137.80,0.039319,0.212988,-0.950142,-0.178151,-0.288187,-0.423163,0.038420,-0.211381,-0.976648,-0.004897,0.074479,-0.065191,8.783974,10.735426,-45.341358,,,,,,
1482007137.84,0.027865,0.205494,-0.968762,-0.213684,-0.301651,-0.299890,0.027275,-0.204051,-0.978580,0.003701,-0.032353,0.052265,7.604524,11.826074,-45.283127,,,,,,
1482007137.89,0.012740,0.192890,-0.979408,-0.349851,-0.454637,-0.186773,0.012503,-0.191696,-0.981375,0.012125,-0.046402,-0.050516,6.723529,12.514764,-45.237385,,,,,,
1482007137.94,-0.010943,0.175731,-0.984111,-0.334163,-0.552166,-0.044475,-0.010775,-0.174828,-0.984540,0.017580,-0.074607,-0.038486,5.608218,13.220060,-45.188759,,,,,,
1482007137.99,-0.037198,0.172661,-0.984571,-0.199957,-0.416890,0.017038,-0.036636,-0.171805,-0.984450,-0.017182,-0.087030,0.057524,4.450585,13.856415,-45.126915,,,,,,
1482007138.04,-0.054466,0.165048,-0.983409,-0.181530,-0.322675,0.032020,-0.053699,-0.164300,-0.984948,-0.015606,-0.099128,0.099892,3.781374,13.668413,-45.245132,,,,,,
1482007138.08,-0.069979,0.167641,-0.979418,-0.355537,-0.195787,0.141868,-0.068942,-0.166857,-0.983568,-0.010114,-0.096113,0.073183,3.130601,14.068022,-45.172298,,,,,,
1482007138.13,-0.075593,0.149023,-0.973346,-0.392121,-0.050249,0.160894,-0.074684,-0.148472,-0.986093,-0.025596,-0.090206,0.005502,2.678443,14.067920,-45.201393,,,,,,
1482007138.18,-0.078964,0.133278,-0.967181,-0.259833,-0.053795,0.147255,-0.078183,-0.132884,-0.988043,-0.069538,-0.124120,-0.005304,2.657710,15.068129,-44.879108,,,,,,
1482007138.23,-0.094960,0.134976,-0.959674,-0.200883,-0.062915,0.111751,-0.093955,-0.134566,-0.986440,-0.095956,-0.105027,-0.038706,2.106975,14.968288,-44.941711,,,,,,
1482007138.28,-0.099031,0.128924,-0.957229,-0.098166,-0.099888,0.042057,-0.098049,-0.128567,-0.986842,-0.071400,-0.103320,-0.009786,2.013052,15.275850,-44.842415,,,,,,
1482007138.32,-0.109645,0.137672,-0.955298,0.060313,0.065828,-0.020796,-0.108390,-0.137238,-0.984590,-0.062677,-0.066940,-0.050566,1.499363,14.936493,-44.976654,,,,,,
1482007138.37,-0.102958,0.142895,-0.955908,0.055202,0.137328,-0.027086,-0.101728,-0.142409,-0.984566,0.002485,-0.068437,-0.049079,1.632109,14.806698,-45.014935,,,,,,
1482007138.42,-0.090572,0.147058,-0.955996,0.027365,0.094833,0.085207,-0.089472,-0.146528,-0.985152,0.055461,-0.033541,-0.116472,2.231540,14.517124,-45.083469,,,,,,
1482007138.47,-0.087263,0.146435,-0.945991,-0.077071,0.044172,0.282922,-0.086219,-0.145912,-0.985533,0.027717,0.017357,-0.087770,2.510102,14.457266,-45.088058,,,,,,
1482007138.52,-0.090177,0.140565,-0.932117,-0.040720,-0.042116,0.284084,-0.089167,-0.140102,-0.986114,0.031015,0.104519,-0.113129,2.850085,14.620749,-45.015076,,,,,,
1482007138.56,-0.096395,0.142209,-0.917951,0.129044,-0.141750,0.299324,-0.095274,-0.141730,-0.985310,0.049315,0.099631,-0.069195,2.904294,14.529236,-45.041233,,,,,,
1482007138.61,-0.108735,0.152672,-0.904305,0.289047,-0.220526,0.264032,-0.107259,-0.152080,-0.982531,0.052098,0.056850,0.014712,2.664897,14.047943,-45.208405,,,,,,
1482007138.66,-0.120135,0.155102,-0.892016,-0.091104,-0.176933,0.195055,-0.118408,-0.154481,-0.980875,0.051498,0.064500,0.086939,2.386895,13.661964,-45.342030,,,,,,
1482007138.71,-0.123016,0.150442,-0.885336,-0.090063,0.082405,0.126424,-0.121320,-0.149876,-0.981233,0.107221,0.033878,0.045213,2.259791,13.772285,-45.315159,,,,,,
1482007138.76,-0.099550,0.145180,-0.883002,-0.051158,0.058175,0.099284,-0.098340,-0.144671,-0.984581,0.116254,-0.003370,-0.037331,2.494740,13.957162,-45.246216,,,,,,
1482007138.80,-0.098386,0.141140,-0.875955,-0.106504,0.055906,0.190248,-0.097250,-0.140672,-0.985268,0.068884,-0.065078,0.055795,3.604397,14.149767,-45.111401,,,,,,
1482007138.85,-0.084434,0.144628,-0.867016,-0.104598,0.181535,0.284598,-0.083454,-0.144124,-0.986034,0.061084,-0.064967,0.018887,3.963397,14.351006,-45.017624,,,,,,
1482007138.90,-0.080423,0.138276,-0.853663,-0.086756,0.071305,0.257210,-0.079569,-0.137836,-0.987254,0.037302,-0.021176,-0.029851,4.845285,14.106867,-45.008507,,,,,,
1482007138.95,-0.077224,0.140667,-0.845326,0.078701,0.081319,0.101065,-0.076385,-0.140203,-0.987172,0.004333,-0.011484,0.013493,5.157164,14.090250,-44.979046,,,,,,
1482007139.00,-0.075598,0.140380,-0.839757,-0.045946,-0.008459,0.123473,-0.074783,-0.139919,-0.987335,0.003219,-0.064030,0.036834,5.395149,13.911901,-45.006638,,,,,,
1482007139.04,-0.085556,0.146004,-0.834224,0.009371,0.027562,0.045757,-0.084542,-0.145486,-0.985741,-0.052512,-0.050986,0.046029,5.402860,13.960235,-44.990746,,,,,,
1482007139.09,-0.085053,0.143647,-0.834483,-0.106111,-0.066834,-0.013776,-0.084076,-0.143154,-0.986123,-0.006409,-0.067143,-0.026374,5.122892,13.630559,-45.124386,,,,,,
1482007139.14,-0.093258,0.141081,-0.836276,0.052943,-0.233888,-0.071530,-0.092198,-0.140614,-0.985762,0.000324,-0.009288,-0.106218,4.776420,13.851545,-45.095085,,,,,,
1482007139.19,-0.102919,0.147030,-0.843352,0.059760,-0.210489,-0.193295,-0.101628,-0.146501,-0.983976,0.005742,-0.038070,0.006300,4.233401,13.688604,-45.198967,,,,,,
1482007139.24,-0.105239,0.148853,-0.850502,-0.103405,0.019376,-0.080461,-0.103883,-0.148304,-0.983471,0.011293,-0.036404,-0.023991,3.799055,13.746819,-45.219887,,,,,,
1482007139.28,-0.101286,0.144222,-0.857207,-0.141544,0.069813,-0.203005,-0.100063,-0.143723,-0.984546,-0.028873,0.080582,-0.086316,3.896546,13.830078,-45.186192,,,,,,
1482007139.33,-0.096870,0.144893,-0.873435,0.213698,0.049199,-0.391419,-0.095705,-0.144386,-0.984882,0.059664,0.098991,-0.166622,3.810546,14.078522,-45.116749,,,,,,
1482007139.38,-0.083563,0.160242,-0.886220,0.223436,0.004483,-0.079770,-0.082396,-0.159558,-0.983744,0.106734,-0.033146,0.011118,3.710748,13.748911,-45.226585,,,,,,
1482007139.43,-0.085608,0.164307,-0.876828,-0.035618,-0.021422,0.339995,-0.084352,-0.163569,-0.982919,0.048692,0.006724,0.079507,4.112398,13.247992,-45.341209,,,,,,
1482007139.48,-0.085580,0.151815,-0.858341,-0.293234,0.134381,0.406214,-0.084492,-0.151233,-0.984881,-0.016201,0.114551,0.034166,4.459735,13.450319,-45.248711,,,,,,
1482007139.52,-0.089009,0.129584,-0.845877,-0.148551,0.087973,0.149526,-0.088146,-0.129221,-0.987690,-0.070133,0.062632,0.013630,4.641924,14.388679,-44.940678,,,,,,
1482007139.57,-0.083447,0.124618,-0.841028,-0.053617,0.158774,0.092664,-0.082704,-0.124296,-0.988792,-0.051375,0.016920,0.053139,4.967135,14.610645,-44.834171,,,,,,
1482007139.62,-0.074656,0.123443,-0.832990,-0.008323,0.189279,0.244835,-0.074019,-0.123130,-0.989626,-0.046373,-0.048394,0.094027,5.482270,14.627224,-44.768684,,,,,,
1482007139.67,-0.069325,0.115793,-0.818698,-0.264266,0.111342,0.326571,-0.068806,-0.115534,-0.990918,-0.047573,-0.006704,0.090832,5.862881,14.640251,-44.716171,,,,,,
1482007139.72,-0.064201,0.099947,-0.803058,-0.249985,0.268362,0.388261,-0.063837,-0.099781,-0.992959,-0.009009,0.017307,0.041971,6.351838,15.060141,-44.509468,,,,,,
1482007139.76,-0.049251,0.087062,-0.783609,-0.179129,0.352441,0.399038,-0.049045,-0.086952,-0.995005,-0.009107,0.043281,-0.024771,7.146518,15.558099,-44.216728,,,,,,
1482007139.81,-0.033707,0.084548,-0.767731,0.018543,0.249314,0.321245,-0.033580,-0.084448,-0.995862,0.018428,0.009847,-0.005466,8.459924,15.690544,-43.937260,,,,,,
1482007139.86,-0.020144,0.083033,-0.746821,0.025770,0.500382,0.506554,-0.020074,-0.082938,-0.996352,0.022134,0.005484,-0.006013,9.434044,15.610950,-43.766918,,,,,,
1482007139.91,-0.002183,0.078728,-0.721651,-0.235554,0.252153,0.491648,-0.002176,-0.078647,-0.996900,0.027063,0.035693,-0.070864,10.765579,15.390329,-43.537182,,,,,,
1482007139.96,0.002171,0.064796,-0.697599,-0.241323,0.080353,0.473263,0.002167,-0.064751,-0.997899,0.040146,0.088249,-0.119334,11.519879,15.739235,-43.218227,,,,,,
1482007140.00,0.003922,0.059196,-0.682132,-0.121509,0.015977,0.244602,0.003916,-0.059161,-0.998241,0.020025,0.055057,-0.046208,11.842060,15.840830,-43.093849,,,,,,
1482007140.05,0.003551,0.041479,-0.669809,-0.344722,-0.120130,0.278030,0.003548,-0.041467,-0.999134,0.049858,0.021173,-0.049145,12.209392,16.170309,-42.868378,,,,,,
1482007140.10,-0.001163,0.030359,-0.659618,-0.143257,-0.051118,0.122375,-0.001162,-0.030355,-0.999539,-0.025449,0.059636,0.004101,12.196027,16.673370,-42.679058,,,,,,
1482007140.15,-0.005659,0.020915,-0.657873,-0.146343,-0.066383,-0.011126,-0.005658,-0.020913,-0.999765,0.004101,-0.003608,0.053736,12.058799,17.141375,-42.532398,,,,,,
1482007140.20,-0.012537,0.011578,-0.661689,-0.182009,-0.096016,-0.096012,-0.012536,-0.011578,-0.999854,0.006875,-0.047276,0.066017,11.741001,17.549585,-42.454769,,,,,,
1482007140.24,-0.014046,0.008224,-0.667031,-0.233166,-0.036219,-0.098064,-0.014045,-0.008223,-0.999868,0.032950,-0.062425,0.020864,11.546332,17.734875,-42.431149,,,,,,
1482007140.29,-0.015990,0.000557,-0.672812,-0.089670,-0.025328,-0.114315,-0.015989,-0.000557,-0.999872,0.045942,-0.056969,-0.039908,11.364656,18.188049,-42.288128,,,,,,
1482007140.34,-0.012357,0.003969,-0.676606,-0.018672,-0.075713,-0.057189,-0.012357,-0.003969,-0.999916,0.054730,-0.040404,-0.062477,11.499745,18.094267,-42.291836,,,,,,
1482007140.39,-0.020761,0.003914,-0.679146,0.021587,-0.233459,-0.058147,-0.020759,-0.003914,-0.999777,0.059639,-0.004035,-0.096170,11.275746,18.172886,-42.318432,,,,,,
1482007140.44,-0.031810,0.008554,-0.682314,0.256103,-0.317903,-0.032970,-0.031803,-0.008554,-0.999458,0.049610,0.010294,-0.095406,10.705821,18.159767,-42.471809,,,,,,
1482007140.48,-0.044397,0.022427,-0.680940,0.211882,-0.217274,0.034506,-0.044371,-0.022425,-0.998763,-0.010270,-0.048147,0.088897,10.051526,17.525681,-42.895962,,,,,,
1482007140.53,-0.050355,0.021822,-0.674751,-0.136371,-0.015189,0.242448,-0.050322,-0.021820,-0.998495,0.002607,-0.084137,0.075872,9.784898,17.336990,-43.034065,,,,,,
1482007140.58,-0.046377,0.009494,-0.659548,-0.199078,-0.068148,0.330101,-0.046359,-0.009494,-0.998880,0.043520,0.071445,-0.147116,10.234842,17.644012,-42.804005,,,,,,
1482007140.63,-0.049711,0.015142,-0.647464,0.336479,0.005038,0.206448,-0.049685,-0.015141,-0.998650,0.005251,0.068409,-0.069496,10.308415,17.491131,-42.849072,,,,,,
1482007140.68,-0.046181,0.023988,-0.633020,0.001031,0.104178,0.393049,-0.046151,-0.023986,-0.998646,-0.002372,-0.044999,0.126652,10.478010,16.984804,-43.011322,,,,,,
1482007140.72,-0.040600,0.013524,-0.609365,-0.263076,0.151932,0.553739,-0.040585,-0.013523,-0.999085,-0.015964,0.015660,0.021835,11.002145,16.776304,-42.962246,,,,,,
1482007140.77,-0.035453,0.000642,-0.586305,-0.194941,0.076710,0.434093,-0.035445,-0.000642,-0.999371,-0.026780,0.050263,-0.065295,11.727069,17.015572,-42.675430,,,,,,
1482007140.82,-0.034511,-0.002623,-0.568837,-0.079696,0.068709,0.348486,-0.034505,0.002623,-0.999401,-0.021663,-0.015929,0.011990,12.281746,17.047302,-42.506405,,,,,,
1482007140.87,-0.030210,-0.008680,-0.548976,-0.132937,0.120705,0.492133,-0.030204,0.008680,-0.999506,-0.000985,-0.084257,0.045481,12.755151,17.017336,-42.378799,,,,,,
1482007140.92,-0.027585,-0.018894,-0.521607,-0.190668,-0.023339,0.621103,-0.027577,0.018893,-0.999441,-0.000225,-0.058276,-0.034433,13.357969,17.043028,-42.182293,,,,,,
1482007140.96,-0.027400,-0.023497,-0.488947,-0.035407,0.028151,0.726094,-0.027389,0.023494,-0.999349,-0.017060,-0.010418,-0.032039,13.877927,16.857821,-42.088753,,,,,,
1482007141.01,-0.026875,-0.023290,-0.454044,0.075864,-0.072082,0.716776,-0.026864,0.023288,-0.999368,-0.002997,0.018033,-0.072074,14.270008,16.537161,-42.084858,,,,,,
1482007141.06,-0.030612,-0.014762,-0.417137,0.387091,-0.064367,0.827281,-0.030604,0.014761,-0.999423,0.036570,0.006098,-0.083997,14.712467,15.878492,-42.186050,,,,,,
1482007141.11,-0.030536,0.004478,-0.371486,0.215008,-0.020053,1.042230,-0.030531,-0.004478,-0.999524,0.044630,-0.008141,0.060879,15.443683,13.983626,-42.593391,,,,,,
1482007141.16,-0.039591,-0.005094,-0.320462,-0.271957,-0.237105,0.995039,-0.039580,0.005094,-0.999203,-0.043611,0.089678,-0.044528,15.859085,13.267132,-42.669884,,,,,,
1482007141.20,-0.041785,-0.009737,-0.280244,0.144114,0.074998,0.722474,-0.041770,0.009737,-0.999080,0.033470,0.075209,-0.012181,16.179018,12.880397,-42.668270,,,,,,
1482007141.25,-0.037597,-0.006188,-0.249399,-0.010076,0.063374,0.636546,-0.037588,0.006188,-0.999274,0.076574,-0.057946,0.096839,14.855652,14.914085,-38.374954,,,,,,
1482007141.30,-0.029349,-0.016591,-0.210925,-0.301287,0.183465,0.942876,-0.029341,0.016591,-0.999432,0.107206,-0.100041,0.036953,15.308335,14.670997,-38.290649,,,,,,
1482007141.35,-0.027706,-0.030079,-0.167224,-0.141897,-0.098563,0.870024,-0.027690,0.030075,-0.999164,0.050670,-0.020996,-0.083371,16.226921,14.492705,-37.979019,,,,,,
1482007141.40,-0.023306,-0.034513,-0.127740,-0.042506,0.174317,0.831421,-0.023290,0.034507,-0.999133,0.019918,-0.052817,-0.012067,16.742075,14.084311,-37.909004,,,,,,
1482007141.44,-0.017521,-0.031758,-0.092404,0.108392,-0.012879,0.672767,-0.017511,0.031753,-0.999342,0.033395,-0.051941,0.024245,17.741274,13.200686,-37.772297,,,,,,
1482007141.49,-0.013342,-0.030314,-0.060209,-0.077806,0.119487,0.690075,-0.013335,0.030309,-0.999452,0.009078,-0.032919,-0.007491,18.207188,12.540982,-37.775383,,,,,,
1482007141.54,-0.010540,-0.027686,-0.032664,0.206730,-0.049366,0.488775,-0.010536,0.027683,-0.999561,0.025031,-0.009693,-0.089825,18.725033,11.928549,-37.720554,,,,,,
1482007141.59,-0.011341,-0.015325,-0.008242,0.310098,-0.081926,0.532199,-0.011339,0.015325,-0.999818,0.062319,-0.026738,-0.120299,18.959791,11.043808,-37.872391,,,,,,
1482007141.64,-0.013898,0.009107,0.018270,0.277368,-0.085435,0.607236,-0.013897,-0.009107,-0.999862,0.025982,-0.053668,-0.002946,18.999949,10.320210,-38.055916,,,,,,
1482007141.68,-0.015300,0.008255,0.051526,-0.199788,-0.016213,0.713860,-0.015298,-0.008255,-0.999849,0.002390,0.071869,-0.180815,19.253958,8.981258,-38.267212,,,,,,
1482007141.73,-0.019933,0.005316,0.080682,0.225347,-0.038628,0.517377,-0.019932,-0.005316,-0.999787,-0.013653,0.127768,-0.180831,19.474432,8.615870,-38.239647,,,,,,
1482007141.78,-0.014940,0.019107,0.105282,0.347034,0.180571,0.523289,-0.014937,-0.019106,-0.999706,-0.009477,0.026247,0.051662,19.772772,7.500767,-38.321445,,,,,,
1482007141.83,-0.009330,0.025044,0.134356,-0.096521,0.084526,0.713330,-0.009327,-0.025041,-0.999643,0.030079,0.003359,0.092218,20.240736,6.547199,-38.251850,,,,,,
1482007141.88,-0.008924,0.014392,0.171950,-0.115289,-0.013573,0.764573,-0.008923,-0.014392,-0.999857,-0.032688,0.117480,-0.059729,20.560226,6.134941,-38.149666,,,,,,
1482007141.92,-0.010306,0.017164,0.203357,0.070125,-0.026756,0.611906,-0.010305,-0.017163,-0.999800,-0.034114,0.021069,0.121961,20.718470,5.446588,-38.168537,,,,,,
1482007141.97,-0.011063,0.012014,0.234046,-0.183671,0.061162,0.691635,-0.011062,-0.012014,-0.999867,-0.028550,-0.046854,0.117558,20.779163,5.028964,-38.192844,,,,,,
1482007142.02,-0.007719,0.000031,0.269611,-0.288845,0.069081,0.766310,-0.007719,-0.000031,-0.999970,-0.050158,-0.023757,0.071580,21.027807,4.668508,-38.102409,,,,,,
1482007142.07,-0.007829,-0.015188,0.304743,-0.354626,0.080729,0.710508,-0.007828,0.015188,-0.999854,-0.077651,-0.003942,-0.019128,21.340414,4.429010,-37.956924,,,,,,
1482007142.12,-0.003080,-0.028604,0.337617,-0.133624,0.101971,0.655946,-0.003078,0.028600,-0.999586,-0.085407,0.005030,-0.081560,21.556738,4.214083,-37.859028,,,,,,
1482007142.16,-0.000806,-0.027984,0.368897,0.048623,-0.029311,0.686831,-0.000805,0.027980,-0.999608,-0.026737,-0.026958,-0.064860,21.819454,3.636548,-37.768299,,,,,,
1482007142.21,-0.002352,-0.020127,0.403287,0.267909,-0.075085,0.750564,-0.002352,0.020126,-0.999795,0.010820,-0.001251,-0.074790,21.812582,2.648187,-37.854404,,,,,,
1482007142.26,-0.001881,-0.005816,0.443269,0.049740,-0.071473,0.969857,-0.001881,0.005816,-0.999981,0.053883,-0.016146,-0.020465,21.739960,1.343610,-37.964802,,,,,,
1482007142.31,-0.009306,-0.009241,0.490109,-0.065446,-0.202035,0.868360,-0.009306,0.009241,-0.999914,0.012358,0.102285,-0.092234,21.786266,0.522947,-37.958431,,,,,,
1482007142.36,-0.010082,-0.014093,0.525333,-0.046183,0.031061,0.652767,-0.010080,0.014092,-0.999850,0.073481,0.040107,-0.012235,21.463793,-0.263967,-38.144375,,,,,,
1482007142.40,-0.003459,-0.017079,0.552611,-0.012312,0.180051,0.552954,-0.003458,0.017078,-0.999848,0.112971,-0.040287,-0.072982,21.609772,-0.745625,-38.055477,,,,,,
1482007142.45,0.003293,-0.015038,0.582842,0.041080,0.031464,0.661327,0.003293,0.015038,-0.999882,0.063098,-0.089058,0.014835,21.950237,-1.582864,-37.834362,,,,,,
1482007142.50,0.002817,-0.013640,0.615886,0.027298,-0.018176,0.694227,0.002816,0.013639,-0.999903,0.033530,-0.075452,0.093500,21.877180,-2.354510,-37.836525,,,,,,
1482007142.55,0.004235,-0.011065,0.647181,0.035011,0.014662,0.636202,0.004235,0.011064,-0.999930,0.033820,-0.055086,0.098517,21.811184,-3.139622,-37.817623,,,,,,
1482007142.60,0.002919,-0.013640,0.674550,-0.125089,-0.020926,0.497498,0.002918,0.013639,-0.999903,0.011684,-0.050077,0.093164,21.666298,-3.728967,-37.847374,,,,,,
1482007142.64,0.006553,-0.022818,0.694196,-0.225715,0.123349,0.359631,0.006551,0.022816,-0.999718,0.055980,-0.066945,-0.040824,21.618015,-3.875224,-37.860291,,,,,,
1482007142.69,0.016298,-0.018223,0.707056,-0.101189,0.034616,0.204429,0.016295,0.018222,-0.999701,0.033479,-0.069049,-0.068155,21.746813,-3.861686,-37.787838,,,,,,
1482007142.74,0.016102,-0.020503,0.715501,-0.006102,-0.021797,0.171030,0.016098,0.020502,-0.999660,0.052856,-0.138971,-0.011936,21.954802,-4.379373,-37.610710,,,,,,
1482007142.79,0.018517,0.002047,0.723200,0.052915,-0.052200,0.139154,0.018516,-0.002047,-0.999826,0.025139,-0.119611,-0.002600,21.853884,-4.555947,-37.648487,,,,,,
1482007142.84,0.019201,0.009499,0.724866,0.203419,0.067111,-0.071482,0.019199,-0.009499,-0.999771,-0.023471,-0.109489,0.010055,21.976137,-5.681583,-37.423607,,,,,,
1482007142.88,0.020309,0.027888,0.716802,0.285557,0.074410,-0.259021,0.020299,-0.027885,-0.999405,-0.020360,-0.053521,-0.094055,22.158287,-5.930943,-37.277229,,,,,,
1482007142.93,0.022963,0.044403,0.702618,0.278321,0.080717,-0.309516,0.022939,-0.044389,-0.998751,-0.050130,-0.040359,-0.063383,22.204216,-6.546658,-37.146622,,,,,,
1482007142.98,0.029307,0.048604,0.689417,-0.041474,0.169301,-0.250648,0.029268,-0.048585,-0.998390,-0.084551,0.014604,-0.095940,22.369699,-6.599323,-37.037857,,,,,,
1482007143.03,0.037921,0.041569,0.679452,-0.042423,0.065241,-0.264594,0.037879,-0.041557,-0.998418,-0.039985,0.176780,-0.291743,22.744864,-6.260775,-36.867752,,,,,,
,,,,,,,,,,,,,,,,48.210427,16.374546,178.999954,-1.000000,-1.000000,1482007142.98
1482007143.08,0.036156,0.050666,0.661191,0.346368,-0.020032,-0.401357,0.036102,-0.050644,-0.998064,-0.051986,0.114380,0.009645,22.919483,-5.904856,-36.818302,,,,,,
1482007143.12,0.042023,0.061291,0.645012,-0.013901,0.096395,-0.245830,0.041932,-0.061253,-0.997241,-0.098801,0.025608,0.202945,23.144337,-6.042707,-36.654915,,,,,,
1482007143.17,0.048448,0.049187,0.638379,-0.320189,0.092546,-0.107251,0.048371,-0.049167,-0.997619,-0.115845,0.096149,0.005553,23.419252,-5.543178,-36.559120,,,,,,
1482007143.22,0.028844,0.024754,0.631174,-0.170524,-0.217311,-0.224192,0.028832,-0.024752,-0.999278,-0.085411,0.046404,0.026530,23.432512,-4.898257,-36.642624,,,,,,
1482007143.27,0.019169,0.015660,0.621603,-0.207082,-0.154210,-0.175893,0.019166,-0.015659,-0.999694,-0.072907,-0.028347,0.138396,22.612556,-4.074647,-37.253548,,,,,,
1482007143.32,0.015672,0.008776,0.610453,-0.148280,-0.058807,-0.250483,0.015670,-0.008776,-0.999839,-0.050430,-0.077680,0.120841,22.378559,-3.533717,-37.449570,,,,,,
1482007143.36,0.016736,-0.002817,0.600427,-0.292550,0.114063,-0.161658,0.016735,0.002817,-0.999856,-0.045300,-0.087046,0.108071,22.332895,-2.985686,-37.524456,,,,,,
1482007143.41,0.025584,-0.014951,0.591663,-0.170338,0.237858,-0.209472,0.025578,0.014951,-0.999561,-0.073658,-0.052808,-0.001019,22.675980,-2.074538,-37.379860,,,,,,
1482007143.46,0.036671,-0.022513,0.582215,-0.126545,0.174513,-0.209712,0.036653,0.022511,-0.999074,-0.082857,-0.055195,-0.057597,23.133003,-1.563169,-37.123821,,,,,,
1482007143.51,0.033424,-0.013159,0.571509,0.170309,0.209263,-0.195385,0.033415,0.013159,-0.999355,-0.062468,-0.087942,-0.034901,23.022844,-1.564352,-37.192188,,,,,,
1482007143.56,0.041258,-0.005473,0.564785,0.106350,0.134399,-0.096754,0.041246,0.005473,-0.999134,-0.079668,-0.070582,-0.007504,23.359934,-1.701830,-36.975327,,,,,,
1482007143.60,0.049745,0.000162,0.557128,0.136636,0.207139,-0.194963,0.049724,-0.000162,-0.998763,-0.056148,-0.004309,-0.163484,23.542303,-1.736614,-36.857857,,,,,,
1482007143.65,0.059632,0.002536,0.550231,-0.001518,0.241631,-0.024919,0.059597,-0.002536,-0.998219,-0.023281,-0.035305,-0.158641,23.908215,-1.747275,-36.621056,,,,,,
1482007143.70,0.071286,0.003518,0.550448,0.097736,0.094543,-0.102481,0.071225,-0.003518,-0.997454,-0.138287,0.214730,-0.229704,24.342880,-1.722830,-36.334743,,,,,,
1482007143.75,0.069122,0.018659,0.535228,0.442484,-0.069747,-0.371945,0.069055,-0.018657,-0.997438,-0.112359,0.136532,-0.017042,24.497913,-1.913630,-36.220818,,,,,,
1482007143.80,0.066233,0.023553,0.520131,-0.264588,-0.006058,-0.181835,0.066166,-0.023551,-0.997531,-0.007664,0.016409,0.128207,24.394018,-1.976116,-36.287525,,,,,,
1482007143.84,0.065339,-0.007791,0.518977,-0.701453,-0.100622,-0.079752,0.065291,0.007791,-0.997836,-0.005064,0.091788,-0.168851,24.393024,-0.931959,-36.330006,,,,,,
1482007143.89,0.058989,-0.018696,0.506772,0.157086,-0.092508,-0.405660,0.058944,0.018695,-0.998086,-0.031875,0.047529,0.001184,24.176449,-0.002310,-36.486389,,,,,,
1482007143.94,0.057488,-0.006340,0.482160,0.301103,0.024254,-0.566854,0.057455,0.006340,-0.998328,-0.053458,-0.008583,0.226874,24.092802,0.079658,-36.541595,,,,,,
1482007143.99,0.056684,0.001126,0.453510,0.026758,-0.060572,-0.541434,0.056654,-0.001126,-0.998393,-0.013349,-0.087527,0.296870,24.103458,0.220503,-36.533985,,,,,,
1482007144.04,0.054784,-0.008065,0.433456,-0.263437,-0.010085,-0.402103,0.054755,0.008065,-0.998467,-0.061743,-0.014688,0.159600,24.004503,0.780145,-36.591427,,,,,,
1482007144.08,0.045335,-0.029864,0.410435,-0.318673,0.010395,-0.595222,0.045300,0.029860,-0.998527,-0.040875,0.054231,-0.041573,23.609035,2.313488,-36.783401,,,,,,
1482007144.13,0.039141,-0.039366,0.378277,0.030691,-0.218475,-0.765739,0.039100,0.039355,-0.998460,0.007470,0.026837,-0.174971,23.420485,3.462982,-36.813667,,,,,,
1482007144.18,0.024536,-0.032985,0.339751,0.146878,-0.326082,-0.755832,0.024520,0.032979,-0.999155,0.100480,-0.142064,-0.034918,22.810534,4.150853,-37.124214,,,,,,
1482007144.23,0.009278,-0.028549,0.311174,0.106529,-0.262675,-0.457122,0.009274,0.028545,-0.999550,0.100238,-0.149578,-0.057930,22.131603,4.625971,-37.477325,,,,,,
1482007144.28,-0.008179,-0.017402,0.287619,0.399607,-0.424466,-0.624856,-0.008178,0.017402,-0.999815,-0.083909,-0.016135,-0.188280,21.725225,4.776163,-37.695629,,,,,,
1482007144.32,-0.021080,0.006405,0.256212,0.358878,-0.166410,-0.575010,-0.021078,-0.006405,-0.999757,-0.040842,-0.070316,-0.110732,20.907646,4.690642,-38.165768,,,,,,
1482007144.37,-0.028584,0.014579,0.235082,0.179742,-0.172653,-0.422328,-0.028577,-0.014578,-0.999485,-0.091007,0.155325,-0.212063,20.450615,4.606646,-38.422760,,,,,,
1482007144.42,-0.034989,0.030087,0.209498,0.295309,-0.094271,-0.613087,-0.034966,-0.030083,-0.998936,-0.157432,0.170357,0.002445,19.906570,4.653084,-38.701866,,,,,,
1482007144.47,-0.028223,0.036198,0.184534,-0.084254,0.219559,-0.426950,-0.028201,-0.036190,-0.998947,-0.089154,0.103588,0.084900,19.875933,4.833476,-38.695507,,,,,,
1482007144.52,-0.025464,0.018960,0.164483,-0.497775,-0.111024,-0.398678,-0.025457,-0.018959,-0.999496,-0.018000,0.098060,-0.008713,19.983944,5.737492,-38.515980,,,,,,
1482007144.56,-0.030600,-0.003663,0.145909,-0.056772,-0.048503,-0.351360,-0.030595,0.003663,-0.999525,-0.001753,0.017974,0.110899,19.647369,7.165114,-38.449959,,,,,,
1482007144.61,-0.032464,-0.004429,0.130623,-0.064554,-0.054713,-0.291052,-0.032458,0.004429,-0.999463,-0.025800,-0.039036,0.232740,19.527481,7.419795,-38.462730,,,,,,
1482007144.66,-0.030099,-0.011895,0.120198,-0.193321,0.145392,-0.076157,-0.030092,0.011894,-0.999476,-0.000501,-0.082710,0.189464,19.365028,7.836124,-38.462299,,,,,,
1482007144.71,-0.021928,-0.022753,0.123342,-0.283120,0.129528,0.170567,-0.021921,0.022751,-0.999501,-0.006048,-0.088974,0.072575,19.695923,8.377561,-38.179108,,,,,,
1482007144.76,-0.019256,-0.035540,0.136123,-0.175316,0.003156,0.360021,-0.019243,0.035532,-0.999183,-0.032317,-0.029902,-0.120583,19.929180,8.669901,-37.992344,,,,,,
1482007144.80,-0.022586,-0.032703,0.152117,0.175605,-0.125760,0.328645,-0.022572,0.032697,-0.999210,-0.057781,-0.055600,-0.057339,19.973757,8.375889,-38.034866,,,,,,
1482007144.85,-0.037886,-0.012584,0.171340,0.207333,0.027119,0.431027,-0.037874,0.012583,-0.999203,-0.069548,-0.025141,-0.038516,19.452972,7.249740,-38.532852,,,,,,
1482007144.90,-0.035387,-0.000823,0.193616,0.238231,0.020575,0.488456,-0.035380,0.000823,-0.999374,-0.049780,-0.031402,-0.107392,19.684361,6.368109,-38.571110,,,,,,
1482007144.95,-0.040836,0.002934,0.225837,-0.023682,-0.196256,0.817669,-0.040825,-0.002934,-0.999162,-0.004158,-0.012309,-0.129317,19.768738,5.781646,-38.620293,,,,,,
1482007145.00,-0.040030,-0.007326,0.266569,-0.314988,0.113837,0.822191,-0.040019,0.007326,-0.999172,0.002787,0.128279,-0.153813,19.723330,5.051119,-38.745758,,,,,,
1482007145.04,-0.046820,-0.014055,0.294182,0.159346,-0.248453,0.419663,-0.046798,0.014054,-0.998806,0.099212,0.132476,-0.175786,19.881386,4.659270,-38.714069,,,,,,
1482007145.09,-0.050046,-0.003056,0.316100,0.108317,0.045840,0.516409,-0.050025,0.003056,-0.998743,0.166129,0.010173,0.085276,19.715622,3.793803,-38.892914,,,,,,
1482007145.14,-0.045124,-0.008075,0.342785,-0.060372,0.112599,0.548253,-0.045108,0.008075,-0.998950,0.119357,0.040326,0.002322,19.961514,3.326122,-38.810211,,,,,,
1482007145.19,-0.041810,-0.008909,0.367661,-0.002883,0.051541,0.551446,-0.041796,0.008909,-0.999086,0.128725,0.004153,0.113527,20.187275,2.843552,-38.731716,,,,,,
1482007145.24,-0.039603,-0.004401,0.390359,0.196449,0.016549,0.369823,-0.039592,0.004401,-0.999206,0.010493,-0.011115,0.202743,20.341022,2.222105,-38.691891,,,,,,
1482007145.28,-0.039363,-0.004182,0.408464,-0.166776,-0.050744,0.450414,-0.039352,0.004182,-0.999217,0.079529,-0.084458,0.224406,20.392527,1.804947,-38.686493,,,,,,
1482007145.33,-0.043215,-0.016198,0.428444,-0.224962,-0.077801,0.377828,-0.043195,0.016197,-0.998935,0.097273,-0.080254,0.026508,20.336676,1.647063,-38.722916,,,,,,
1482007145.38,-0.026065,-0.008329,0.446299,-0.108597,-0.072341,0.341288,-0.026061,0.008329,-0.999626,0.098739,-0.073255,-0.062951,20.974201,1.014021,-38.403286,,,,,,
1482007145.43,-0.032686,-0.008309,0.460052,0.119135,-0.176911,0.243900,-0.032679,0.008309,-0.999431,0.040492,-0.054055,-0.130802,20.771301,0.777319,-38.518909,,,,,,
1482007145.48,-0.038932,0.004525,0.470579,0.376220,-0.099062,0.182613,-0.038922,-0.004525,-0.999232,0.016568,-0.033957,-0.124242,20.504751,0.155473,-38.668961,,,,,,
1482007145.52,-0.054099,0.029976,0.481451,0.661204,-0.375207,0.180417,-0.054048,-0.029972,-0.998088,0.009187,0.002704,-0.111485,20.037397,-0.927794,-38.902435,,,,,,
1482007145.57,-0.066905,0.054207,0.492820,0.255039,-0.199983,0.262807,-0.066757,-0.054181,-0.996297,0.010925,-0.062732,0.015584,19.466501,-2.225159,-39.139000,,,,,,
1482007145.62,-0.076841,0.057016,0.509597,-0.374413,-0.139290,0.429106,-0.076640,-0.056985,-0.995429,0.035304,0.074136,-0.155084,19.189560,-2.968920,-39.226318,,,,,,
1482007145.67,-0.081684,0.052838,0.522991,0.351838,-0.046384,0.082754,-0.081479,-0.052813,-0.995275,-0.032428,0.238177,-0.260173,18.861652,-2.774306,-39.399220,,,,,,
1482007145.72,-0.077961,0.071468,0.528344,0.251024,0.145356,0.202255,-0.077684,-0.071407,-0.994418,0.030793,0.006984,0.139178,18.868286,-3.681214,-39.321674,,,,,,
1482007145.76,-0.073651,0.067229,0.547848,-0.236910,0.063732,0.526380,-0.073418,-0.067179,-0.995036,0.026314,0.050882,0.089549,19.059431,-4.087678,-39.189114,,,,,,
1482007145.81,-0.076587,0.055103,0.572904,-0.154213,-0.057991,0.504271,-0.076396,-0.055075,-0.995555,-0.040426,0.094625,0.161617,18.953371,-4.153796,-39.233570,,,,,,
1482007145.86,-0.080567,0.041455,0.595216,-0.333511,-0.081636,0.454817,-0.080410,-0.041443,-0.995900,-0.050800,0.052994,0.198323,18.748394,-4.204492,-39.326546,,,,,,
1482007145.91,-0.082304,0.021067,0.612310,-0.425560,0.050324,0.351810,-0.082193,-0.021066,-0.996394,-0.007193,-0.038917,0.128260,18.593742,-4.021607,-39.418991,,,,,,
1482007145.96,-0.074969,0.002449,0.632911,-0.322147,0.180594,0.559376,-0.074898,-0.002449,-0.997188,0.038018,-0.068641,0.041957,18.638456,-3.588197,-39.439705,,,,,,
1482007146.00,-0.068685,-0.010411,0.658175,-0.183526,0.145522,0.543400,-0.068628,0.010411,-0.997588,-0.000174,-0.056004,-0.041612,18.871355,-3.481097,-39.338421,,,,,,
1482007146.05,-0.059575,-0.017183,0.686679,-0.019347,0.143726,0.632879,-0.059531,0.017182,-0.998079,-0.008355,-0.051316,-0.108016,19.135622,-3.808145,-39.180141,,,,,,
1482007146.10,-0.055345,-0.016386,0.718371,0.139209,0.012677,0.658032,-0.055309,0.016385,-0.998335,-0.012364,0.000491,-0.144976,19.208336,-4.446077,-39.077225,,,,,,
1482007146.15,-0.056945,-0.008311,0.750520,0.129070,-0.107398,0.739364,-0.056912,0.008311,-0.998345,0.049924,-0.010752,-0.097694,19.025511,-5.409396,-39.045177,,,,,,
1482007146.20,-0.064695,-0.015545,0.796303,-0.228526,-0.104537,1.148163,-0.064642,0.015544,-0.997787,0.082709,0.070088,-0.075302,22.423759,-4.701427,-38.783127,,,,,,
1482007146.24,-0.067077,-0.040438,0.855051,-0.415551,-0.192557,1.172529,-0.066972,0.040427,-0.996935,0.059892,0.266290,-0.273313,22.143246,-5.169609,-38.884590,,,,,,
1482007146.29,-0.073450,-0.038691,0.893600,0.314133,-0.012908,0.609067,-0.073329,0.038681,-0.996557,0.049403,0.132797,0.052649,21.527073,-5.731113,-39.150974,,,,,,
1482007146.34,-0.068492,-0.038709,0.923057,-0.185550,0.143767,0.693892,-0.068388,0.038699,-0.996908,0.149549,-0.016330,0.125433,21.268963,-6.829853,-39.115772,,,,,,
1482007146.39,-0.060456,-0.050030,0.963420,-0.030230,0.026760,0.856239,-0.060343,0.050009,-0.996924,0.136470,0.011652,-0.126642,21.256411,-7.465494,-39.006290,,,,,,
1482007146.44,-0.061592,-0.044566,1.002885,0.225821,-0.041950,0.814909,-0.061492,0.044552,-0.997113,0.102081,-0.034404,0.118298,20.867538,-8.488764,-39.007004,,,,,,
1482007146.48,-0.061735,-0.038930,1.042691,0.111237,-0.066276,0.793555,-0.061649,0.038920,-0.997339,0.068210,-0.044185,0.172220,20.443209,-9.664315,-38.958130,,,,,,
1482007146.53,-0.066263,-0.037143,1.080154,0.007951,-0.159768,0.786831,-0.066169,0.037134,-0.997117,0.094214,-0.064219,0.130265,19.869364,-10.616829,-39.007061,,,,,,
1482007146.58,-0.073023,-0.043393,1.117109,-0.046717,-0.143364,0.739276,-0.072890,0.043379,-0.996396,0.093672,-0.059630,-0.004519,19.374823,-11.065625,-39.130905,,,,,,
1482007146.63,-0.074534,-0.043322,1.147405,0.118862,-0.030172,0.510428,-0.074396,0.043308,-0.996288,0.074212,-0.041752,-0.049565,18.731016,-11.649343,-39.274689,,,,,,
1482007146.68,-0.072042,-0.029102,1.167468,0.276971,-0.072043,0.347347,-0.071950,0.029098,-0.996984,0.041539,-0.068023,-0.088054,18.356962,-12.343977,-39.239105,,,,,,
1482007146.72,-0.076209,-0.012509,1.183432,0.463470,-0.149622,0.252744,-0.076129,0.012509,-0.997020,0.039828,-0.031155,-0.161504,18.069513,-13.709903,-38.917744,,,,,,
1482007146.77,-0.088723,0.012653,1.191818,0.540920,-0.287559,0.046612,-0.088599,-0.012653,-0.995987,0.049888,-0.130139,-0.064117,17.529028,-14.823171,-38.756500,,,,,,
1482007146.82,-0.086513,0.040939,1.201296,0.260535,0.063847,0.346839,-0.086333,-0.040928,-0.995425,0.115691,-0.215786,-0.150006,17.418854,-16.123129,-38.284306,,,,,,
1482007146.87,-0.079981,0.044633,1.231025,0.127503,0.176305,0.699415,-0.079816,-0.044618,-0.995811,0.013044,0.212267,-0.341302,17.247723,-16.866589,-38.040688,,,,,,
1482007146.92,-0.081971,0.073436,1.250515,0.850763,-0.099159,0.121309,-0.081658,-0.073370,-0.993956,-0.114951,0.285758,-0.036165,17.051945,-17.567680,-37.810940,,,,,,
1482007146.96,-0.075985,0.104090,1.260574,0.277828,0.297604,0.281739,-0.075501,-0.103902,-0.991718,-0.073578,0.044118,0.360492,16.829689,-19.167343,-37.127266,,,,,,
1482007147.01,-0.069736,0.090573,1.280986,-0.473614,0.079537,0.486950,-0.069394,-0.090449,-0.993481,-0.054889,0.149638,0.113613,16.920767,-19.773016,-36.766495,,,,,,
1482007147.06,-0.070697,0.071123,1.300388,-0.259374,-0.000497,0.335447,-0.070459,-0.071063,-0.994980,-0.106146,0.182147,0.075379,16.544781,-19.400444,-37.134251,,,,,,
1482007147.11,-0.070220,0.056259,1.307749,-0.427928,0.061199,0.102503,-0.070051,-0.056230,-0.995957,-0.059588,0.031419,0.238572,16.348366,-19.100698,-37.375843,,,,,,
1482007147.16,-0.062831,0.030000,1.315155,-0.495403,0.180856,0.317024,-0.062762,-0.029996,-0.997578,0.042330,-0.069965,0.027912,16.448786,-18.296019,-37.732647,,,,,,
1482007147.20,-0.059379,0.015928,1.331054,-0.119755,0.085512,0.314077,-0.059337,-0.015928,-0.998111,-0.037404,-0.017169,-0.049817,16.340025,-17.920155,-37.959599,,,,,,
1482007147.25,-0.052130,0.014579,1.347385,-0.012916,0.155797,0.366607,-0.052101,-0.014579,-0.998535,-0.032890,-0.060739,-0.050842,16.290699,-18.009680,-37.938423,,,,,,
1482007147.30,-0.046252,0.019501,1.365653,0.314036,0.106928,0.354409,-0.046227,-0.019499,-0.998741,-0.064079,-0.009797,-0.161110,16.255358,-18.310368,-37.809433,,,,,,
1482007147.35,-0.064282,0.046860,1.383302,0.163516,0.027088,0.366311,-0.064168,-0.046843,-0.996839,-0.054988,-0.047274,-0.002047,15.923421,-19.325655,-37.443600,,,,,,
1482007147.40,-0.055314,0.047320,1.409680,0.095373,0.292991,0.648767,-0.055224,-0.047303,-0.997353,0.039080,0.000092,-0.225105,15.111465,-20.338243,-37.243240,,,,,,
1482007147.44,-0.050719,0.061150,1.442768,0.319768,0.025351,0.782085,-0.050603,-0.061112,-0.996847,0.076116,0.036042,-0.179621,14.805314,-21.269196,-36.844044,,,,,,
1482007147.49,-0.055948,0.063475,1.484909,0.124402,-0.177511,0.779406,-0.055806,-0.063433,-0.996425,-0.015804,0.227999,-0.222066,13.885578,-22.127363,-36.696457,,,,,,
1482007147.54,-0.067672,0.081083,1.507759,0.473766,-0.147192,0.259813,-0.067398,-0.080994,-0.994433,-0.029511,0.212021,0.113086,12.898131,-23.039980,-36.494617,,,,,,
1482007147.59,-0.071432,0.089057,1.518791,-0.146580,0.010789,0.282313,-0.071089,-0.088940,-0.993497,0.059675,0.062847,0.267514,12.591834,-23.606173,-36.238842,,,,,,
1482007147.64,-0.067405,0.073878,1.534531,-0.322926,0.134484,0.323614,-0.067170,-0.073811,-0.995008,0.011140,0.056294,0.091764,12.305945,-23.597269,-36.342701,,,,,,
1482007147.68,-0.067011,0.060643,1.543322,-0.182898,-0.058421,0.098918,-0.066838,-0.060606,-0.995921,-0.028652,0.034711,0.098644,12.083329,-23.123056,-36.720253,,,,,,
1482007147.73,-0.067125,0.055067,1.544802,-0.104099,0.035621,0.016868,-0.066973,-0.055039,-0.996236,-0.026579,-0.043579,0.166829,11.979943,-22.919096,-36.881641,,,,,,
1482007147.78,-0.069998,0.050880,1.542864,-0.133153,-0.169626,-0.067278,-0.069851,-0.050858,-0.996260,0.002773,-0.043990,0.081389,11.966798,-22.757538,-36.985806,,,,,,
1482007147.83,-0.080987,0.034933,1.538107,-0.292594,-0.069907,-0.147568,-0.080849,-0.034926,-0.996114,-0.013954,0.012770,0.038793,11.788015,-22.343393,-37.294437,,,,,,
1482007147.88,-0.079847,0.026879,1.522591,-0.078146,0.087879,-0.438610,-0.079733,-0.026876,-0.996454,0.019461,0.017247,-0.028830,11.797001,-21.622959,-37.713894,,,,,,
1482007147.92,-0.057863,0.034863,1.498968,-0.056016,0.253750,-0.450651,-0.057796,-0.034856,-0.997720,0.107326,-0.076182,-0.043326,12.231462,-21.378141,-37.715061,,,,,,
1482007147.97,-0.049833,0.040504,1.484057,0.242930,-0.012335,-0.262883,-0.049772,-0.040493,-0.997939,0.124830,-0.028125,-0.247513,13.599779,-21.365541,-37.250759,,,,,,
1482007148.02,-0.054937,0.056760,1.470910,0.376693,-0.116376,-0.278478,-0.054821,-0.056730,-0.996883,0.046535,0.007535,-0.132572,13.918391,-21.719500,-36.926971,,,,,,
1482007148.07,-0.050742,0.077097,1.457410,0.363916,0.212132,-0.356893,-0.050569,-0.077021,-0.995746,-0.068983,0.033411,-0.078488,14.213474,-22.238522,-36.503216,,,,,,
1482007148.12,-0.042161,0.075419,1.441698,-0.101994,0.278815,-0.262380,-0.042029,-0.075347,-0.996271,-0.026041,0.030105,-0.110113,14.947512,-22.322166,-36.157326,,,,,,
1482007148.16,-0.020807,0.078474,1.426770,0.317778,0.436854,-0.462048,-0.020742,-0.078394,-0.996707,-0.130336,0.205026,-0.193403,15.775686,-21.846985,-36.095657,,,,,,
1482007148.21,-0.009284,0.091827,1.399008,0.027045,0.030399,-0.509552,-0.009244,-0.091698,-0.995744,-0.080859,0.038948,0.115327,16.556414,-21.970194,-35.668690,,,,,,
1482007148.26,-0.001940,0.083601,1.382555,-0.311230,0.107496,-0.249389,-0.001934,-0.083504,-0.996506,-0.068333,0.067726,0.041595,17.242519,-21.665796,-35.529541,,,,,,
1482007148.31,-0.005782,0.072831,1.371547,-0.064960,-0.210782,-0.224433,-0.005767,-0.072766,-0.997332,-0.055055,0.114255,0.004000,17.655027,-20.974869,-35.740932,,,,,,
1482007148.36,-0.013439,0.069568,1.362852,-0.175434,-0.107244,-0.129678,-0.013406,-0.069512,-0.997491,-0.069022,0.025658,0.240640,17.506250,-20.539955,-36.065231,,,,,,
1482007148.40,-0.013505,0.059077,1.354459,-0.212745,0.045953,-0.214196,-0.013481,-0.059042,-0.998164,-0.109032,0.021887,0.177944,17.573227,-20.044855,-36.310398,,,,,,
1482007148.45,-0.008623,0.045478,1.345561,-0.371903,0.143832,-0.109189,-0.008614,-0.045462,-0.998929,-0.087226,-0.042764,0.147168,17.891012,-19.433304,-36.487228,,,,,,
1482007148.50,-0.021947,0.027361,1.339874,-0.276854,0.192582,-0.161009,-0.021937,-0.027357,-0.999385,-0.106267,0.005461,-0.039296,17.466829,-18.646425,-37.098251,,,,,,
1482007148.55,-0.012280,0.019620,1.329917,-0.122984,0.117573,-0.217911,-0.012277,-0.019618,-0.999732,-0.097007,-0.018254,-0.069085,17.822910,-18.260632,-37.120785,,,,,,
1482007148.60,-0.019653,0.020844,1.320594,-0.027314,0.311376,-0.199496,-0.019647,-0.020842,-0.999590,-0.081305,-0.000688,-0.123595,18.294134,-17.853725,-37.089466,,,,,,
1482007148.64,-0.008747,0.028833,1.307274,0.313987,0.184017,-0.300575,-0.008744,-0.028829,-0.999546,-0.055206,0.018682,-0.255856,18.289442,-17.855661,-37.090851,,,,,,
1482007148.69,-0.001439,0.039805,1.298853,0.153594,0.092749,-0.118837,-0.001438,-0.039794,-0.999207,-0.041271,0.000991,-0.216736,18.968611,-18.153786,-36.601795,,,,,,
1482007148.74,0.000545,0.042373,1.294521,0.009146,-0.064646,-0.098278,0.000544,-0.042360,-0.999102,-0.062678,0.098757,-0.201887,19.172810,-18.218987,-36.462738,,,,,,
1482007148.79,-0.012738,0.056225,1.277931,0.525063,-0.457315,-0.569783,-0.012717,-0.056195,-0.998339,-0.080484,0.210644,-0.103941,19.030704,-18.297760,-36.497723,,,,,,
1482007148.84,-0.029877,0.077320,1.247244,0.215660,-0.238774,-0.645258,-0.029783,-0.077243,-0.996567,-0.065554,0.085925,0.197648,18.813837,-18.575249,-36.469975,,,,,,
1482007148.88,-0.026807,0.067560,1.222161,-0.487042,0.120303,-0.458990,-0.026743,-0.067509,-0.997360,0.000971,0.128086,-0.007309,18.996309,-18.304691,-36.512165,,,,,,
1482007148.93,-0.029016,0.054140,1.192068,-0.026732,-0.251783,-0.798710,-0.028970,-0.054113,-0.998114,-0.019752,0.156729,-0.160882,19.554045,-17.116455,-36.793011,,,,,,
1482007148.98,-0.032391,0.059425,1.149708,0.074057,0.040596,-0.874735,-0.032328,-0.059391,-0.997711,0.004206,-0.023434,0.250397,19.830130,-16.268406,-37.029236,,,,,,
1482007149.03,-0.026908,0.058750,1.108030,-0.123046,0.045963,-0.869941,-0.026858,-0.058716,-0.997913,-0.010007,-0.020339,0.199436,20.762356,-15.200397,-36.972042,,,,,,
1482007149.08,-0.020606,0.046342,1.069850,-0.383519,0.126348,-0.702225,-0.020582,-0.046325,-0.998714,0.007872,-0.004792,0.115154,21.467676,-13.978271,-37.051399,,,,,,
1482007149.12,-0.011357,0.029777,1.032960,-0.275569,0.193788,-0.862747,-0.011352,-0.029772,-0.999492,-0.056428,0.094805,-0.013401,22.200212,-12.538774,-37.134743,,,,,,
1482007149.17,-0.003942,0.022242,0.984025,-0.097010,0.033187,-1.076024,-0.003941,-0.022241,-0.999745,-0.001049,0.052117,-0.039058,23.032177,-11.122467,-37.079227,,,,,,
1482007149.22,-0.003072,0.020883,0.932782,0.013953,-0.010274,-1.049494,-0.003071,-0.020881,-0.999777,0.012715,-0.003762,0.005240,24.237452,-15.642752,-36.849323,,,,,,
1482007149.27,-0.004861,0.025058,0.881175,0.164174,-0.128836,-1.106147,-0.004860,-0.025055,-0.999674,0.022728,-0.011246,-0.087225,24.972668,-14.419783,-36.857265,,,,,,
1482007149.32,-0.010956,0.040096,0.828416,0.402184,-0.125051,-1.065745,-0.010947,-0.040085,-0.999136,0.032126,-0.066925,-0.092508,25.484749,-13.385153,-36.896984,,,,,,
1482007149.36,-0.013370,0.046919,0.784388,-0.201739,-0.081952,-0.794950,-0.013355,-0.046901,-0.998810,-0.068707,-0.038700,-0.122711,26.035217,-12.374868,-36.865322,,,,,,
1482007149.41,-0.009741,0.033765,0.747530,-0.113342,0.088123,-0.835345,-0.009735,-0.033759,-0.999383,-0.130462,0.206412,-0.336265,26.466413,-10.910954,-37.020290,,,,,,
1482007149.46,-0.014450,0.049857,0.692545,0.432109,-0.163224,-1.288614,-0.014431,-0.049836,-0.998653,-0.156406,0.171357,0.081279,26.840168,-9.910402,-37.032574,,,,,,
1482007149.51,-0.008098,0.056299,0.636541,-0.182250,0.134283,-1.035732,-0.008085,-0.056269,-0.998383,-0.116167,0.067606,0.183777,27.383865,-8.770850,-36.921787,,,,,,
,,,,,,,,,,,,,,,,48.210420,16.374548,178.999969,-1.000000,-1.000000,1482007149.50
1482007149.56,-0.005918,0.041672,0.590898,-0.257073,-0.153641,-0.917917,-0.005913,-0.041660,-0.999114,-0.043922,0.159122,-0.090653,27.768284,-7.584582,-36.897408,,,,,,
1482007149.60,-0.014754,0.036842,0.546348,-0.055160,-0.178574,-0.881745,-0.014743,-0.036834,-0.999213,-0.051755,0.087065,0.105368,27.823606,-5.918835,-37.159607,,,,,,
1482007149.65,-0.016467,0.033309,0.508379,-0.088908,0.058440,-0.725962,-0.016458,-0.033302,-0.999310,-0.078773,0.035942,0.181896,27.749096,-4.205050,-37.447662,,,,,,
1482007149.70,-0.011796,0.029295,0.476547,-0.118246,0.076419,-0.607726,-0.011791,-0.029291,-0.999501,-0.078450,0.043497,0.104345,27.996469,-3.127946,-37.368916,,,,,,
1482007149.75,-0.009206,0.021047,0.453669,-0.192912,0.032650,-0.381519,-0.009204,-0.021045,-0.999736,-0.083081,0.045749,0.006679,28.157337,-2.135233,-37.317924,,,,,,
1482007149.80,-0.025415,0.005944,0.433717,-0.015307,-0.118822,-0.458583,-0.025411,-0.005944,-0.999659,-0.071451,0.046792,-0.071324,27.621786,-0.955417,-37.764351,,,,,,
1482007149.84,-0.029337,0.005920,0.413774,0.002627,0.016269,-0.365547,-0.029332,-0.005920,-0.999552,-0.082118,-0.036286,0.041697,27.441477,-0.350436,-37.905994,,,,,,
1482007149.89,-0.041706,0.010026,0.395354,-0.074919,0.198525,-0.415904,-0.041692,-0.010026,-0.999080,-0.089442,-0.009109,-0.021107,27.502274,-0.044061,-37.863506,,,,,,
1482007149.94,-0.031489,0.008320,0.375085,-0.021231,0.113205,-0.390885,-0.031483,-0.008320,-0.999470,0.043140,-0.054608,-0.276287,27.161858,0.438160,-38.105953,,,,,,
1482007149.99,-0.029494,0.008616,0.362758,-0.064942,0.050807,-0.113211,-0.029488,-0.008616,-0.999528,0.046563,-0.083501,-0.188750,27.385490,1.055038,-37.933414,,,,,,
1482007150.04,-0.025658,0.005451,0.355708,0.080743,-0.014032,-0.279595,-0.025654,-0.005451,-0.999656,-0.074962,0.194111,-0.243981,27.537243,1.379307,-37.812958,,,,,,
1482007150.08,-0.034880,0.021537,0.333454,0.409529,-0.261668,-0.562918,-0.034865,-0.021535,-0.999160,-0.047670,0.174383,-0.034745,27.258583,1.473828,-38.010784,,,,,,
1482007150.13,-0.039450,0.034065,0.309244,0.002783,0.012574,-0.409966,-0.039417,-0.034058,-0.998642,0.010212,0.065110,0.177216,26.907007,1.586609,-38.255955,,,,,,
1482007150.18,-0.041984,0.026734,0.288018,-0.164769,-0.157524,-0.498601,-0.041957,-0.026731,-0.998762,0.020046,0.130567,-0.026156,26.880718,2.024750,-38.253750,,,,,,
1482007150.23,-0.052026,0.023386,0.261943,-0.084326,-0.234187,-0.585891,-0.051988,-0.023384,-0.998374,0.014375,0.050438,0.095252,28.149347,-1.540901,-37.595566,,,,,,
1482007150.28,-0.058765,0.021534,0.229965,-0.062833,-0.051065,-0.718212,-0.058718,-0.021532,-0.998042,-0.011870,0.013644,0.164760,27.764091,-0.600583,-37.907536,,,,,,
1482007150.32,-0.055837,0.017223,0.195123,-0.252821,0.088570,-0.698485,-0.055800,-0.017222,-0.998293,0.006483,-0.028600,0.141909,27.697460,0.881337,-37.950768,,,,,,
1482007150.37,-0.051647,0.001284,0.163463,-0.391561,0.073840,-0.636528,-0.051624,-0.001284,-0.998666,0.000400,0.003756,0.023858,27.801384,2.359554,-37.811401,,,,,,
1482007150.42,-0.048964,-0.012981,0.127465,-0.223541,0.063298,-0.804636,-0.048940,0.012980,-0.998717,0.000829,0.044240,-0.052155,27.809149,3.932691,-37.674549,,,,,,
1482007150.47,-0.047983,-0.020231,0.090377,-0.162698,-0.002919,-0.723227,-0.047955,0.020230,-0.998645,0.047619,-0.033764,0.004184,27.721869,5.365713,-37.561863,,,,,,
1482007150.52,-0.048528,-0.024783,0.057231,-0.098091,-0.006102,-0.673448,-0.048494,0.024780,-0.998516,0.077532,-0.047958,0.019695,27.594675,6.174729,-37.531231,,,,,,
1482007150.56,-0.050417,-0.025969,0.028211,-0.020118,-0.030274,-0.546699,-0.050379,0.025966,-0.998393,0.109110,-0.097194,-0.016653,27.372612,7.225874,-37.506176,,,,,,
1482007150.61,-0.053493,-0.021750,0.005062,0.099272,-0.109195,-0.446682,-0.053455,0.021748,-0.998333,0.102618,-0.092290,-0.048908,27.114811,7.947419,-37.547466,,,,,,
1482007150.66,-0.061543,-0.007886,-0.015955,0.379056,-0.216896,-0.478490,-0.061502,0.007885,-0.998076,0.074319,-0.040753,-0.129152,26.603180,8.315743,-37.832600,,,,,,
1482007150.71,-0.073598,0.003775,-0.028981,0.036716,-0.218816,-0.122817,-0.073531,-0.003775,-0.997286,0.065490,-0.092569,-0.071577,26.009724,8.236683,-38.260136,,,,,,
1482007150.76,-0.079622,0.001595,-0.032105,-0.108715,-0.056787,-0.045963,-0.079538,-0.001595,-0.996831,-0.016516,0.113442,-0.285549,25.679159,8.365477,-38.454987,,,,,,
1482007150.80,-0.084982,0.001923,-0.039508,0.268607,-0.209136,-0.348381,-0.084879,-0.001923,-0.996389,-0.036367,0.264008,-0.328363,25.488680,8.625411,-38.524227,,,,,,
1482007150.85,-0.090921,0.028621,-0.061720,0.514916,0.011009,-0.555846,-0.090759,-0.028617,-0.995462,-0.017151,0.054359,0.261850,25.123316,8.490303,-38.793301,,,,,,
1482007150.90,-0.084030,0.039865,-0.080264,-0.023571,0.185214,-0.210634,-0.083864,-0.039855,-0.995680,0.036486,0.003020,0.211683,24.905384,8.258042,-38.983498,,,,,,
1482007150.95,-0.077064,0.004324,-0.082943,-0.234585,0.133131,0.045175,-0.076987,-0.004324,-0.997023,-0.002877,0.085394,0.038374,25.172432,8.533329,-38.752003,,,,,,
1482007151.00,-0.075351,-0.007984,-0.081642,-0.216729,-0.038932,0.040946,-0.075277,0.007983,-0.997131,-0.026438,0.062512,0.011916,25.372646,10.095121,-38.242699,,,,,,
1482007151.04,-0.084693,-0.016322,-0.082202,-0.131825,-0.015383,0.000070,-0.084581,0.016321,-0.996283,0.009935,-0.028086,0.071432,25.016052,10.437197,-38.385525,,,,,,
